Timestamp,Roll,Pitch,Yaw,Acc_X,Acc_Y,Acc_Z,USBL_X,USBL_Y,Depth,Est_X,Est_Y,Est_Z,Temp,State_6,State_7,State_8,Gyro_X,Gyro_Y,Gyro_Z,Mag_X,Mag_Y,Mag_Z
1586436464.89,-144.971389771,-15.5753164291,-35.245765686,0,0,0,-0.0235,-2.7107,0.552965643189,-0.0235,-2.7107,0.552965643189,23.29,0,0,0,,,,,,
1586436465.13,-145.607772827,-15.7781620026,-35.4433250427,2.53761601448,-5.1872754097,-7.84482383728,0,0,0,-0.0235000007724,-2.71069999913,-0.552965643493,23.29,-1.31708675209e-05,1.48204672431e-05,-5.18438111557e-06,-0.0884473398328,0.00884458422661,0.0219739992172,-0.578750133514,-0.0408754348755,0.785572767258
1586436465.39,-146.35333252,-15.3989915848,-35.4857940674,2.53894329071,-5.21680259705,-7.52786397934,0,0,0,-0.0235004615159,-2.71070020991,-0.552966865201,23.29,-1.99581916986e-05,1.74133705083e-05,3.01171834478e-05,-0.0508472286165,-0.0588133893907,0.0138558447361,-0.578289031982,-0.0474095344543,0.786952495575
1586436465.65,-147.04914856,-14.8973293304,-34.9355926514,2.59145879745,-5.20263671875,-7.703769207,0,0,0,-0.0235023812696,-2.71069812911,-0.552972995296,23.28,-1.29850213232e-05,1.29238625031e-05,5.60747579207e-05,-0.0703230500221,-0.0557303465903,-0.0360563397408,-0.565329551697,-0.0583703517914,0.797780990601
1586436465.91,-148.218948364,-14.9059143066,-34.3629570007,2.59513735771,-4.92962837219,-8.10365200043,0,0,0,-0.0235021669655,-2.7106966511,-0.55298178406,23.27,-5.73778930898e-06,1.96113748558e-05,5.17797236383e-05,-0.1121834144,-0.00300109386444,-0.0261187553406,-0.562042474747,-0.0783123970032,0.797787427902
1586436466.33,-151.965682983,-14.6055183411,-34.130153656,2.73208594322,-4.55445289612,-8.53419876099,16.7719,32.5902,0.570803244582,-0.0234711277146,-2.7106420516,-0.552989951026,23.24,3.1111383453e-05,6.19256549633e-06,3.96527485669e-05,-0.11331140995,0.0170968454331,-0.0244811177254,-0.558129072189,-0.131511211395,0.791841983795
1586436466.59,-153.44909668,-15.106133461,-34.051158905,2.59193134308,-4.18044757843,-8.62000370026,0,0,0,-0.0234528980524,-2.71063596026,-0.552992211397,23.25,3.47115693521e-05,1.19397150973e-05,2.44926985623e-05,-0.157633438706,0.0368289649487,-0.0141099095345,-0.56157207489,-0.156424045563,0.790607213974
1586436466.85,-155.180801392,-15.2384967804,-34.2157707214,2.55467271805,-3.84233784676,-8.49510574341,0,0,0,-0.023435334958,-2.71063086562,-0.553027080282,23.24,3.20857660282e-05,2.59194332433e-05,3.49782055293e-05,-0.147901490331,-0.0147521495819,0.0375278331339,-0.564255952835,-0.178463220596,0.781304121017
1586436467.11,-156.076782227,-14.5535640717,-34.4395828247,2.57608747482,-3.73380565643,-8.42173957825,0,0,0,-0.0234013063303,-2.71059915876,-0.553103590382,23.23,4.37777697509e-05,3.84859173972e-05,6.27612129367e-05,-0.0516250729561,-0.0856220722198,0.0471405722201,-0.560266017914,-0.190742015839,0.787936449051
1586436467.52,-158.555587769,-11.990489006,-33.5671882629,2.0993168354,-3.39312767982,-8.89785575867,0,0,0,-0.023328943727,-2.71058366829,-0.553192938561,23.2,5.03048809178e-05,5.10747075313e-05,6.68000034586e-05,-0.0982925370336,-0.0278949737549,-0.0554904378951,-0.523838996887,-0.218279600143,0.809392929077
1586436467.78,-159.626373291,-11.9567050934,-32.8234100342,2.13183546066,-3.16833925247,-9.00047874451,0.4708,-2.9566,0.586658890265,-0.0232244970331,-2.7105962103,-0.55327295135,23.21,6.13873435177e-05,7.06608827119e-05,6.65237120069e-05,-0.0687137171626,-0.0251814741641,-0.0464007258415,-0.518800497055,-0.239135742188,0.806880474091
1586436468.04,-160.412963867,-12.200176239,-32.2908973694,2.28305029869,-3.1839735508,-9.00243377686,0,0,0,-0.0230917477569,-2.71054044684,-0.553352525414,23.2,8.42435211971e-05,7.41252133872e-05,7.03264100282e-05,-0.0551581457257,0.0291995760053,-0.043441362679,-0.516318798065,-0.2547955513,0.80931353569
1586436468.3,-160.390716553,-12.8531522751,-32.5941696167,2.46821045876,-3.23240756989,-9.03615760803,0,0,0,-0.02289998572,-2.71043444036,-0.553405583048,23.2,0.000115596375793,7.17719876357e-05,6.7790072465e-05,0.01525208354,0.0884167924523,0.0369630791247,-0.526178836823,-0.255089998245,0.803955316544
1586436468.73,-153.897506714,-14.0559301376,-39.524684906,2.46836328506,-4.09103012085,-8.56701850891,0,0,0,-0.0226534061404,-2.71036039572,-0.553535123146,23.17,0.000125067950756,8.26776982446e-05,6.57889025133e-05,0.232381388545,0.126148015261,0.260532706976,-0.58735203743,-0.14054608345,0.773484706879
1586436468.99,-149.989318848,-13.7836084366,-43.0467948914,2.35939717293,-4.6019411087,-8.22925376892,0,0,0,-0.0224486915731,-2.71035703473,-0.553679702607,23.18,0.000127433098704,0.000101256319027,6.85115113996e-05,0.303839921951,0.107534982264,0.291458517313,-0.60347533226,-0.0680372714996,0.759759187698
1586436469.25,-144.845184326,-12.8175029755,-46.7743644714,2.21829557419,-5.37345170975,-7.70240926743,16.8728,31.5675,0.613415292355,-0.0216165353448,-2.70904583219,-0.553898446017,23.17,0.000253298366187,7.27411929535e-05,0.000119640902963,0.453598052263,0.0826857984066,0.328224152327,-0.615839242935,0.0294406414032,0.744089841843
1586436469.51,-137.462646484,-10.7714567184,-50.4649429321,1.92110013962,-6.51572179794,-7.03347826004,0,0,0,-0.0213571095341,-2.7087097483,-0.553956629335,23.17,0.000263160739109,7.299816629e-05,0.000127639336679,0.693398177624,0.0161238070577,0.38846218586,-0.613299131393,0.156748533249,0.723190307617
1586436469.93,-87.9755401611,8.259724617,-47.7788009644,-1.18504655361,-9.36569023132,0.275260388851,0,0,0,-0.0204046218514,-2.70866232216,-0.553726918192,23.14,0.00028910505283,0.000112320299582,0.000119787988779,1.28361129761,-0.376154690981,0.505704641342,-0.315347909927,0.841110467911,0.337844610214
1586436470.19,-74.982170105,12.6605186462,-43.5339889526,-1.79532134533,-8.97658348083,2.50408816338,0,0,0,-0.0194348487667,-2.708592414,-0.553624763543,23.15,0.000330391540009,0.000143879776947,0.000122436868719,0.877637624741,-0.264212548733,0.379454404116,-0.207149267197,0.933886289597,0.16174864769
1586436470.45,-65.8020553589,14.9839715958,-39.8936271667,-2.23467040062,-8.55441570282,3.99640250206,0,0,0,-0.0185328785282,-2.70842391182,-0.553487401272,23.14,0.000365729980048,0.000154719549589,0.000135337665725,0.585005581379,-0.206294685602,0.230860009789,-0.138271331787,0.963641166687,0.0324401855469
1586436470.71,-59.2162590027,15.7827777863,-37.0016822815,-2.46535491943,-8.3677072525,4.88355922699,0,0,0,-0.0179842328007,-2.70818713895,-0.553024229387,23.13,0.000389655992383,0.000124816126661,0.000141212024361,0.439433038235,-0.191873326898,0.139697656035,-0.0965504646301,0.969289302826,-0.0590665340424
1586436471.13,-44.5874481201,19.2542076111,-32.4333267212,-3.57758522034,-6.79097414017,6.3942155838,0,0,0,-0.0177970354922,-2.70858122112,-0.552586181013,23.11,0.00034890450076,9.05821334003e-05,0.000116846664135,0.235245421529,0.103171929717,0.0458426810801,0.00721073150635,0.95209312439,-0.277433633804
1586436471.38,-43.4619827271,19.9595851898,-33.9345245361,-3.60515570641,-6.51098775864,6.6771030426,0,0,0,-0.0178427727941,-2.70873277984,-0.552388570864,23.11,0.000318280971233,7.07055368194e-05,0.000114634906851,0.0568218566477,0.131834298372,-0.0778302550316,0.00949478149414,0.943274497986,-0.308857440948
1586436471.64,-44.1855278015,20.4156589508,-36.0712661743,-3.34456753731,-6.44172143936,6.70139217377,1.1637,-3.3242,0.508371639706,-0.0169707339125,-2.70878757916,-0.552191757424,23.11,0.000335798717842,7.37907109025e-05,0.000124366916551,-0.051186978817,0.141776368022,-0.0922575742006,0.00470209121704,0.939613342285,-0.314834356308
1586436471.9,-45.488822937,20.31183815,-38.1799850464,-3.28592395782,-6.47487783432,6.64744949341,0,0,0,-0.0160044626366,-2.70868301422,-0.552067685319,23.09,0.000350399848422,8.44996899919e-05,0.000148010388377,-0.0586017929018,0.0638551935554,-0.139771401882,-0.012868642807,0.938512325287,-0.307299613953
1586436472.33,-42.3022994995,19.4098396301,-39.7852058411,-3.40350818634,-6.44768095016,6.75861549377,0,0,0,-0.0156396103385,-2.70908185107,-0.551403311516,23.08,0.000332882123754,5.76967785768e-05,0.000137251273075,0.353036135435,-0.042268641293,0.0183649417013,-0.030225276947,0.916147232056,-0.368032455444
1586436472.58,-36.5415382385,17.2016677856,-39.6183013916,-3.30758905411,-5.84142637253,7.52080917358,0,0,0,-0.0164061016714,-2.70915261041,-0.550983330899,23.08,0.0002827404023,2.56101079183e-05,0.00013583521591,0.605543851852,-0.329345524311,-0.228594318032,-0.0524985790253,0.874979019165,-0.455912828445
1586436472.85,-29.0749988556,10.3991451263,-39.7652206421,-1.95811581612,-4.63679981232,8.25128078461,0,0,0,-0.0162963953997,-2.70961249566,-0.55100752712,23.08,0.000259500614098,3.23234374824e-05,0.000112803651634,0.631403267384,-0.59388589859,-0.365945786238,-0.138751745224,0.792143344879,-0.565950393677
1586436473.1,-24.0541954041,2.89353752136,-40.9049911499,-0.250693142414,-3.819647789,8.78189849854,17.0979,30.3973,0.569812266727,-0.00805833565452,-2.70423497447,-0.552005306346,23.08,0.000372671854145,0.000240648153446,0.000397849783146,0.228718698025,-0.47601172328,-0.379005163908,-0.248429298401,0.713825941086,-0.620592355728
1586436473.53,-26.7770614624,-12.2793092728,-52.534538269,2.41050672531,-4.33203887939,8.66944694519,0,0,0,-0.00600341672777,-2.70405945419,-0.549752335737,23.05,0.000413591181907,0.000239118130698,0.000411522158443,-0.274695515633,-0.072634242475,-0.550393819809,-0.518837451935,0.591930389404,-0.536338806152
1586436473.79,-28.4146499634,-15.5326700211,-58.397026062,2.64926600456,-4.60591554642,8.32052898407,0,0,0,-0.00556911907389,-2.70407508075,-0.548251949583,23.06,0.000416240283231,0.00022552438168,0.000411991947994,-0.281880795956,0.0302918273956,-0.58341473341,-0.58794593811,0.532371759415,-0.504232883453
1586436474.04,-30.4095458984,-18.2575836182,-65.417098999,2.90277385712,-4.6603474617,7.97858762741,0,0,0,-0.00542503384704,-2.70393750111,-0.547354361391,23.06,0.000394187568244,0.000232820225768,0.000404359847967,-0.428091049194,0.106289260089,-0.618481755257,-0.649451732635,0.469218969345,-0.483235120773
1586436474.3,-33.6255836487,-20.228811264,-72.6617965698,3.46555423737,-4.91169500351,7.45184326172,0,0,0,-0.00424347206869,-2.70441195833,-0.546614205382,23.04,0.000403417376613,0.000256938210761,0.000376520311932,-0.567481040955,0.231387525797,-0.545455753803,-0.694402933121,0.411411762238,-0.465227127075
1586436474.73,-46.0577163696,-20.7294750214,-87.298500061,3.35797786713,-6.57111930847,6.46720695496,0,0,0,-0.0040162632103,-2.70367488592,-0.544279576079,23.03,0.000388262281292,0.000261848422219,0.000389236465358,-0.359249144793,0.0675596296787,-0.159157827497,-0.724254369736,0.363159656525,-0.446220397949
1586436474.99,-49.4414596558,-21.7317352295,-89.1794509888,3.61302185059,-6.82923936844,5.97945213318,0,0,0,-0.00348441603728,-2.70311411688,-0.542855019566,23.04,0.000385491705819,0.000274528228378,0.000395964183286,-0.36743581295,0.0566460192204,-0.148980334401,-0.738609313965,0.360640287399,-0.430979967117
1586436475.25,-52.7834510803,-22.2131824493,-90.9072265625,3.71517276764,-7.09998321533,5.44651937485,0,0,0,-0.00267961660179,-2.70277789572,-0.541629119335,23.03,0.000386091249091,0.000292340737813,0.00038948631468,-0.320862233639,0.0856839194894,-0.0653058290482,-0.74409198761,0.363255977631,-0.411184549332
1586436475.51,-54.9844894409,-21.4561691284,-92.1379318237,3.55657529831,-7.37839126587,5.42236757278,0,0,0,-0.00214105599342,-2.7015104004,-0.539845956674,23.03,0.000381628968724,0.000305843152198,0.000413465102141,-0.178626179695,0.136055782437,0.0659741535783,-0.737054824829,0.3814702034,-0.420092582703
1586436475.93,-60.3514099121,-17.3520240784,-93.4013061523,2.94894456863,-8.20801639557,4.6709561348,0,0,0,-0.00183189322794,-2.70058682999,-0.53697102654,23.01,0.000384530935371,0.000296803807775,0.000418390140351,-0.0825539305806,0.0133760273457,0.199585422873,-0.699291706085,0.452544689178,-0.402901172638
1586436476.18,-59.6095466614,-14.9488887787,-92.3712463379,2.78411054611,-8.16074180603,4.81640672684,0,0,0,-0.000552251062782,-2.70061212651,-0.534460188122,23.02,0.000418521048287,0.000299224624325,0.000420979987784,0.166230663657,0.0495709553361,0.230107486248,-0.672159910202,0.487889289856,-0.412447690964
1586436476.44,-57.8673171997,-12.863152504,-92.2040176392,2.32922363281,-8.08416938782,5.19467687607,0,0,0,0.000410626716628,-2.70003563173,-0.531834441527,23.01,0.000438027385137,0.000301612891351,0.000435256392714,0.0935949385166,0.0908218547702,0.0965230166912,-0.646748065948,0.504651784897,-0.441509246826
1586436476.71,-57.0466537476,-11.8050870895,-92.7425994873,2.05395340919,-7.9802274704,5.50991439819,0,0,0,0.00131863563302,-2.69818740723,-0.52892238483,23.01,0.000444253331501,0.000312552491655,0.000473931276805,0.0425316430628,0.0555835701525,0.053583830595,-0.632365226746,0.509366989136,-0.457377672195
1586436477.13,-48.6445350647,-10.4179077148,-91.2882766724,1.54579639435,-7.10486936569,6.46759176254,0,0,0,0.00242904276222,-2.6962281794,-0.526438406376,22.99,0.000412635398346,0.000331862056686,0.000486290724011,0.623651683331,0.0404395163059,0.00832304451615,-0.611637830734,0.476320743561,-0.530842781067
1586436477.38,-41.0214881897,-9.77061367035,-92.4428634644,1.92052233219,-6.36399030685,6.95713663101,0,0,0,0.00407446240657,-2.69907853905,-0.524470854206,23.0,0.000447907752155,0.000329584356969,0.000439153130181,0.619261801243,0.19768704474,-0.0968128591776,-0.597305774689,0.412115335464,-0.60970044136
1586436477.64,-33.0825614929,-8.56933879852,-96.1712036133,1.60838198662,-5.48861789703,7.62463903427,0,0,0,0.00430374521148,-2.70341813324,-0.523499891565,23.0,0.000468176250511,0.00030288530762,0.000368575035561,0.654577493668,0.333968609571,-0.259017944336,-0.576073169708,0.318029880524,-0.703342199326
1586436477.91,-24.2229213715,-5.75728988647,-100.639427185,1.12341594696,-3.47091293335,8.38514518738,0,0,0,0.00981830181487,-2.7072489186,-0.523922487564,23.0,0.000487532921699,0.0003777157255,0.000295832187755,0.734073936939,0.47945022583,-0.120171919465,-0.531188964844,0.196028232574,-0.801285743713
1586436478.33,-4.40819835663,8.66432952881,-103.158416748,-1.70863378048,-0.651180744171,9.93230724335,0,0,0,0.0112384360648,-2.70723912251,-0.522131715249,22.98,0.000454867168355,0.000391050722735,0.000332468080804,0.266789704561,0.218611240387,0.0818155929446,-0.319314002991,-0.0602478981018,-0.963367700577
1586436478.58,-1.76135730743,10.4181365967,-102.791603088,-1.75812840462,-0.308939933777,9.92657661438,0,0,0,0.0120122386193,-2.70744509742,-0.519420969319,22.98,0.000457155178527,0.000389250262795,0.00037209712092,0.204736739397,0.0916235223413,0.0271998364478,-0.295208215714,-0.101732969284,-0.975032091141
1586436478.84,-0.318223923445,10.742729187,-102.788314819,-1.73160171509,0.0171900447458,9.92094421387,18.8308,27.4274,0.77890859417,0.0603270654948,-2.6398275503,-0.515970277323,22.99,-6.09415386543e-05,0.00123313473658,0.00106574338774,-0.00675916764885,-0.0195831079036,-0.00531822443008,-0.290671825409,-0.124869585037,-0.972149133682
1586436479.09,-0.596174001694,10.4069328308,-102.986434937,-1.58679187298,-0.2021035254,9.77528476715,0,0,0,0.064334099065,-2.6411873132,-0.511247000983,22.99,-3.42927284354e-05,0.00121840229955,0.00108324077521,-0.0196367502213,-0.0214889645576,-0.0042617325671,-0.290066957474,-0.119371414185,-0.969160795212
1586436479.53,2.78811836243,9.79001808167,-103.138511658,-1.70864486694,0.696050584316,9.71957778931,0,0,0,0.0746659875313,-2.64217165311,-0.506119427078,22.96,-4.00856286666e-05,0.00125095259847,0.0010917867228,0.144981622696,-0.0399619452655,0.0207312405109,-0.304795742035,-0.17381811142,-0.961771249771
1586436479.79,2.99913716316,9.11774921417,-103.354408264,-1.75732111931,0.989437937737,9.87084388733,0,0,0,0.0841862140632,-2.64018857282,-0.50325062326,22.96,-6.95628212623e-05,0.00132107244278,0.00111992912233,-0.21701605618,-0.0902906134725,-0.0561594963074,-0.312255859375,-0.181066513062,-0.960293054581
1586436480.05,-3.92473816872,7.3925280571,-105.029518127,-1.37015497684,-0.529020309448,9.59244632721,0,0,0,0.0908148890101,-2.64078401546,-0.501288889581,22.96,-8.52925301182e-05,0.00134095016831,0.00110261182996,-0.806805610657,-0.168648406863,-0.181935757399,-0.337114095688,-0.0936620235443,-0.953357934952
1586436480.31,-12.6134605408,5.65295791626,-106.780326843,-1.0585757494,-2.36889100075,9.72415447235,0,0,0,0.0931561904392,-2.6394043526,-0.495735377509,22.96,-9.8775761645e-05,0.00130603614694,0.0011309135918,-0.646470546722,-0.123040400445,-0.127790912986,-0.358612775803,0.0213787555695,-0.94478058815
1586436480.73,-22.9241256714,-0.89792239666,-105.409797668,0.165976658463,-3.67701792717,9.0286026001,18.7196,26.8086,0.731341657121,0.182299725193,-2.52684228591,-0.491211241323,22.94,-0.0010511657927,0.00229085343731,0.0018353826284,-0.0595763362944,-0.176028907299,0.0521145798266,-0.456470966339,0.163426160812,-0.870000600815
1586436480.98,-23.0972194672,-2.50056958199,-104.376182556,0.388779431581,-3.6116938591,8.87428379059,0,0,0,0.194501670596,-2.52286504008,-0.486780540061,22.95,-0.00105690555899,0.00232540436267,0.00181361773907,0.020361693576,-0.155074894428,0.0335656106472,-0.483074426651,0.167943000793,-0.847270727158
1586436481.24,-21.8896713257,-3.71453619003,-103.6640625,0.543272197247,-3.5490603447,8.9803981781,0,0,0,0.205202923822,-2.51803370161,-0.481775268539,22.95,-0.00107060751282,0.00234031162524,0.00179735708727,0.14854298532,-0.107878446579,0.0217251498252,-0.499826908112,0.15215587616,-0.840637922287
1586436481.5,-20.2383003235,-4.8464012146,-103.162315369,0.728426158428,-3.22154307365,9.29166698456,0,0,0,0.21648506325,-2.51160762916,-0.47441466348,22.95,-0.00108558288574,0.00236417216622,0.0018145939698,0.0464729964733,-0.117661058903,-0.00523477839306,-0.515048027039,0.13158082962,-0.833704471588
1586436481.93,-26.6076889038,-10.5446748734,-104.707855225,1.71212911606,-4.26647424698,8.74442672729,0,0,0,0.231905627463,-2.5002981879,-0.46091892172,22.93,-0.00109816553592,0.00237215027235,0.00183225198663,-0.254529714584,-0.129997745156,-0.0753417611122,-0.588209867477,0.166520595551,-0.766066074371
1586436482.19,-29.1311531067,-12.242729187,-104.433433533,1.99053657055,-4.52592468262,8.54648399353,0,0,0,0.242699798528,-2.49149555822,-0.451788270892,22.94,-0.00111182742381,0.00239361839914,0.00185775778233,-0.233262822032,-0.162357106805,-0.00974982976913,-0.61078619957,0.18939447403,-0.736986398697
1586436482.45,-32.6666946411,-13.8570346832,-103.725868225,2.35297727585,-5.20023488998,7.98000907898,0,0,0,0.250771415223,-2.48435640612,-0.444324570168,22.94,-0.00111126800183,0.00238447217788,0.00185114720436,-0.393636584282,-0.132675483823,-0.0439777970314,-0.631927013397,0.218880176544,-0.698529720306
1586436482.7,-37.7064437866,-15.1306724548,-104.106163025,2.52411031723,-5.74003314972,7.33614635468,0,0,0,0.260207955372,-2.47719851738,-0.43947880472,22.94,-0.00111689413481,0.00239244064239,0.0018263731314,-0.497785210609,-0.0277325529605,-0.112238533795,-0.64768576622,0.255965709686,-0.660623788834
1586436483.13,-48.5939979553,-15.3515367508,-106.071723938,2.39426374435,-6.9807715416,6.56337165833,0,0,0,0.276498842036,-2.45621740869,-0.426955314598,22.92,-0.00114848420276,0.00241040023978,0.00187346123465,-0.110180698335,-0.00243932008743,0.0874303504825,-0.652866125107,0.345794677734,-0.603122234344
1586436483.39,-49.0464172363,-14.6382465363,-105.057762146,2.40481829643,-7.3723154068,6.50060176849,0,0,0,0.281656672611,-2.44290976564,-0.417916971392,22.93,-0.00116005806929,0.00237865349129,0.00191644610411,0.0224880874157,-0.0411123074591,0.1094795838,-0.644907236099,0.360121965408,-0.595831394196
1586436483.65,-48.2024726868,-14.5692987442,-104.053642273,2.42165255547,-6.96909141541,6.76104879379,0,0,0,0.292290445431,-2.42773258986,-0.406123295224,22.92,-0.00116725251849,0.00239590629131,0.00198375466966,0.164421677589,-0.0990972146392,0.0845126956701,-0.64493560791,0.367237329483,-0.596678972244
1586436483.9,-46.0569648743,-15.2884922028,-102.334289551,2.59773659706,-6.99748325348,6.68181991577,0,0,0,0.297626549221,-2.4163775084,-0.398137015874,22.93,-0.00116547219501,0.00236699505854,0.00200116263752,0.21445979178,-0.178296878934,-0.000102818026789,-0.653311252594,0.353888034821,-0.594985961914
1586436484.33,-39.9870834351,-22.4501838684,-102.897514343,3.47887921333,-5.77896738052,6.94437551498,0,0,0,0.311007123004,-2.39483237399,-0.386720417056,22.91,-0.00120817962002,0.0023745528067,0.002000013841,0.214732483029,-0.197426974773,-0.197991743684,-0.724800348282,0.224100589752,-0.562587976456
1586436484.58,-36.6143341064,-25.1798648834,-103.33215332,4.37097454071,-5.15130519867,6.98376989365,0,0,0,0.321308532738,-2.38898164101,-0.377313115955,22.92,-0.00117669848045,0.00239746545584,0.00197649248106,0.292008429766,-0.107583411038,-0.126168131828,-0.749307632446,0.169835567474,-0.551521539688
1586436484.85,-33.5070953369,-26.3627815247,-103.93006897,4.35643529892,-4.54289197922,7.31406593323,0,0,0,0.334947567766,-2.37888594497,-0.366412148429,22.92,-0.00117677535643,0.00244709122358,0.00197331459615,0.162182047963,-0.0244289673865,-0.0743061378598,-0.759318351746,0.125739812851,-0.5533618927
1586436485.11,-32.0382919312,-26.7237548828,-104.815467834,4.2308511734,-4.27079725266,7.10392904282,0,0,0,0.35149579719,-2.36959198174,-0.361704437746,22.92,-0.00120608848912,0.00250784991273,0.00192027688928,0.0510759688914,0.0619880855083,-0.0399902462959,-0.758981227875,0.103933811188,-0.558238506317
1586436485.53,-26.9201602936,-16.420545578,-105.084915161,2.05840086937,-4.37204456329,8.98010444641,0,0,0,0.364297982035,-2.33638319076,-0.342033541431,22.9,-0.00132266972924,0.00248962398444,0.00201559055654,0.238157108426,0.400190830231,0.180254176259,-0.658656597137,0.136041641235,-0.69538640976
1586436485.78,-23.7773666382,-11.4542827606,-105.045417786,2.04437422752,-4.05935907364,8.9509677887,0,0,0,0.370988543656,-2.32852001688,-0.328105767177,22.92,-0.00130679330492,0.00245955686777,0.00203962825029,0.342880964279,0.389521628618,0.235328868032,-0.597784757614,0.134969711304,-0.759382009506
1586436486.04,-19.1266956329,-6.23824977875,-104.082054138,1.11159086227,-3.26444244385,9.10148143768,0,0,0,0.382193711014,-2.32407167117,-0.319778107872,22.92,-0.00129915253292,0.00244799481129,0.00202024408604,0.455883860588,0.397145062685,0.261309027672,-0.533675670624,0.118329048157,-0.823566436768
1586436486.3,-13.9069166183,-1.02985024452,-102.633903503,0.0508762784302,-2.15399098396,9.48356437683,0,0,0,0.401166459503,-2.31614750073,-0.311815137451,22.92,-0.00131967528218,0.00248129280802,0.00201311956092,0.456237137318,0.386741042137,0.267460256815,-0.461913585663,0.0842795372009,-0.882274627686
1586436486.73,-3.93937349319,10.0854454041,-99.0096435547,-1.96662306786,-0.516727864742,9.81137466431,0,0,0,0.43105448391,-2.30021388783,-0.297676931742,22.89,-0.0013608548814,0.00250543544477,0.00204146035274,0.115814082325,0.215583324432,0.0616870932281,-0.304848670959,-0.00584816932678,-0.968108892441
1586436486.99,-3.13996529579,12.4126033783,-98.8872375488,-2.36442470551,-0.460760146379,9.69612121582,0,0,0,0.449221674217,-2.28780181794,-0.290351365936,22.9,-0.00140333400624,0.00251579802078,0.00206220070512,0.0237040221691,0.191324204206,0.0129990288988,-0.269770622253,-0.0134732723236,-0.985944032669
1586436487.24,-3.31061720848,14.5648078918,-99.1103057861,-2.66242933273,-0.493267089128,9.46395587921,0,0,0,0.4681396075,-2.27829301739,-0.2860132309,22.91,-0.00143580865097,0.00252467229354,0.00205868457976,-0.0698998570442,0.184018179774,-0.0241935253143,-0.235719203949,-0.00977897644043,-0.995287179947
1586436487.5,-2.46021175385,16.2184448242,-98.6700820923,-2.77401447296,-0.278108805418,9.20393943787,0,0,0,0.489571964768,-2.27487435884,-0.284531236074,22.91,-0.00144115330379,0.00254554025549,0.00202276740442,0.207483068109,0.102826222777,0.147972255945,-0.207369327545,-0.0165235996246,-0.995453834534
1586436487.93,1.24151313305,16.6787109375,-94.6624298096,-3.09391832352,0.500041842461,9.51181221008,1.2269,-4.9726,0.731341657121,0.546724930174,-2.31956201676,-0.285869811701,22.89,-0.00125180049202,0.00268227360619,0.00185326321943,-0.284253120422,-0.142581775784,-0.00997185893357,-0.198806762695,-0.036465883255,-1.00365591049
1586436488.19,-2.62072491646,14.9553127289,-95.3045654297,-3.02632284164,-0.318219274282,9.65954017639,0,0,0,0.568713675812,-2.29940189556,-0.280857889192,22.9,-0.00133465002929,0.00270123788409,0.00188450402182,-0.317874640226,-0.166796177626,-0.0571072176099,-0.227605342865,0.0172169208527,-0.99653172493
1586436488.45,-5.70593309402,12.6992750168,-95.9643630981,-2.63391757011,-0.874267220497,9.72229576111,0,0,0,0.590176329654,-2.27837276401,-0.274739388504,22.9,-0.00141490771498,0.00271392040892,0.00191719554799,-0.217872858047,-0.204469308257,-0.0662982463837,-0.25899887085,0.0563707351685,-0.980933666229
1586436488.71,-7.5870256424,10.4656105042,-96.5397415161,-2.10908102989,-1.29892635345,9.76266288757,0,0,0,0.607981765432,-2.26035780189,-0.266333295195,22.9,-0.0014700000999,0.00270933984701,0.00195010626031,-0.118444882333,-0.157579824328,-0.0617787316442,-0.293914318085,0.0821003913879,-0.967612981796
1586436489.13,-7.20378446579,6.96229410172,-96.6233520508,-1.18310213089,-0.943656265736,9.53644943237,0,0,0,0.645975074325,-2.25094391469,-0.255732561317,22.89,-0.00146865967519,0.00275632314173,0.00192788304923,-0.094072535634,-0.0565171353519,-0.00594705436379,-0.350231409073,0.0680973529816,-0.946878433228
1586436489.38,-9.07542133331,6.42096948624,-96.9049758911,-1.08155035973,-1.23224806786,9.58135318756,21.397,21.9407,0.679810808652,1.31813430785,-1.54172492436,-0.27472564373,22.9,-0.00437408721699,0.00526913129581,0.0029917260136,-0.227430433035,-0.0480174943805,-0.0328898392618,-0.35737490654,0.0930912494659,-0.938815355301
1586436489.64,-11.9317655563,5.67712831497,-97.3818435669,-0.943820357323,-1.82273280621,9.53764438629,0,0,0,1.36089147747,-1.51916359596,-0.264697157366,22.89,-0.00436877918029,0.00530122726546,0.00298841619347,-0.267440110445,-0.0687509775162,-0.0552445761859,-0.37028837204,0.130681991577,-0.92951631546
1586436489.9,-14.9060373306,4.61829185486,-97.8835906982,-0.880406320095,-2.46730065346,9.44216346741,0,0,0,1.39897821761,-1.49274489183,-0.256668742001,22.9,-0.00438332450125,0.00530858349676,0.00298607604712,-0.230929285288,-0.0946179106832,-0.0479415096343,-0.385795593262,0.167438030243,-0.913943767548
1586436490.33,-21.3583602905,0.238415285945,-98.5458755493,-0.163221344352,-3.44632458687,9.20519161224,0,0,0,1.46340052928,-1.44492307493,-0.240407169525,22.88,-0.00440349986072,0.00532949911184,0.0029967641555,-0.236286267638,-0.11898727715,-0.0723853781819,-0.451205730438,0.236473083496,-0.850013971329
1586436490.59,-24.0269565582,-1.5204410553,-98.9027557373,0.144133478403,-3.85718274117,9.03410720825,0,0,0,1.50461339876,-1.41325276118,-0.230044175058,22.89,-0.00442269178628,0.00535210799457,0.00300892553538,-0.239770159125,-0.142678618431,-0.079718247056,-0.475878238678,0.259739160538,-0.824801921844
1586436490.85,-26.4063873291,-3.38187742233,-98.951385498,0.511366069317,-4.22017145157,8.80869293213,0,0,0,1.54657460944,-1.3816548145,-0.219990100025,22.89,-0.00443356501192,0.00537470296601,0.00301431001187,-0.184854879975,-0.146663188934,-0.0356406010687,-0.502786874771,0.281729459763,-0.80179476738
1586436491.11,-27.8384876251,-4.68020343781,-98.3270187378,0.789398610592,-4.46720075607,8.68035316467,0,0,0,1.58602309224,-1.35118920878,-0.209603111267,22.89,-0.00443474836591,0.00539110790032,0.00301921379652,-0.0732884034514,-0.112362228334,0.0395052134991,-0.52099108696,0.299008846283,-0.775938987732
1586436491.53,-27.0240745544,-6.97345924377,-95.3301620483,1.15269851685,-4.35824537277,8.67629814148,0,0,0,1.64471319971,-1.29684470134,-0.193321891282,22.88,-0.00444075734156,0.00540198746327,0.00301844396045,0.120758265257,-0.0903040245175,0.081979483366,-0.550280809402,0.301578760147,-0.745826721191
1586436491.79,-25.8393878937,-7.44858264923,-94.1517944336,1.26707148552,-4.06346464157,8.71906471252,0.9964,-5.1763,0.629270938038,1.65621755567,-1.43326607147,-0.203874248843,22.89,-0.00393126011066,0.00535989094293,0.00271874399546,0.0645615234971,-0.0710919573903,0.0684313476086,-0.553944349289,0.298996925354,-0.73847413063
1586436492.05,-25.7660560608,-7.6137638092,-93.4825744629,1.29347646236,-4.03142404556,8.75388717651,0,0,0,1.69824026039,-1.40243176134,-0.193092171896,22.88,-0.00393171766987,0.00539238012158,0.00271730953277,-0.0430390276015,-0.00124722719193,0.0492475964129,-0.560302734375,0.298473834991,-0.744149208069
1586436492.31,-26.7581939697,-6.7116060257,-93.2925643921,1.08568418026,-4.21206855774,8.77987670898,0,0,0,1.7400114469,-1.36833632375,-0.18136278401,22.89,-0.00394147197237,0.0054214741285,0.00273009650607,-0.150398910046,0.114945344627,0.0482030324638,-0.547670125961,0.319266557693,-0.74006319046
1586436492.73,-34.5400657654,-4.48071146011,-94.1217803955,0.692193746567,-5.51858711243,8.19596099854,0,0,0,1.80048178649,-1.31254299305,-0.170025774415,22.87,-0.00395361383795,0.00542556371395,0.00275323114266,-0.293163955212,0.0149436304346,-0.00960379838943,-0.524629831314,0.410761117935,-0.7075984478
1586436492.99,-37.8093109131,-4.40077209473,-94.4453964233,0.726641833782,-6.04746627808,7.75128078461,0,0,0,1.83544834436,-1.27941463577,-0.166790049915,22.88,-0.003957515604,0.00541620450604,0.0027562712612,-0.273600310087,0.00986680574715,-0.00408887863159,-0.523905515671,0.447240591049,-0.680943727493
1586436493.24,-40.5476150513,-4.42296218872,-94.6061706543,0.784649968147,-6.40743350983,7.31858825684,0,0,0,1.87105970931,-1.2502820035,-0.169200203976,22.89,-0.00395204409371,0.00540713257263,0.00273546838526,-0.228841602802,0.0071324412711,-0.0045970082283,-0.524680376053,0.474863767624,-0.657713890076
1586436493.5,-42.5571746826,-4.43475198746,-94.5438919067,0.744856536388,-6.59940242767,7.08301830292,0,0,0,1.9099954311,-1.21955452192,-0.173812410663,22.88,-0.00395385357089,0.00540926441532,0.00271324951006,-0.138834133744,-0.0337854065001,0.0239245630801,-0.529378890991,0.495059728622,-0.638646602631
1586436493.93,-47.3405303955,-6.35790491104,-92.6896820068,0.911278188229,-7.06977748871,6.71084165573,0,0,0,1.97589609165,-1.15366119674,-0.17725783134,22.87,-0.00398409769132,0.00542642874923,0.00273067263733,-0.211811065674,-0.0825494602323,-0.0427380204201,-0.557564258575,0.534551143646,-0.565903902054
1586436494.19,-49.7727775574,-7.59739685059,-92.4625091553,1.13051199913,-7.45466423035,6.42923927307,0,0,0,2.01117297492,-1.10853182567,-0.17855709535,22.88,-0.00401294381354,0.00542068127781,0.00275611879101,-0.20935536921,-0.0971809104085,-0.07495431602,-0.573790788651,0.544801473618,-0.52897310257
1586436494.45,-51.8632736206,-9.20701217651,-92.1112060547,1.38175082207,-7.62144613266,6.11805486679,0,0,0,2.04814589767,-1.06025819687,-0.181827256439,22.88,-0.00404571778104,0.00541945678362,0.00277967104338,-0.165623426437,-0.123320527375,-0.0872299075127,-0.594742298126,0.546977519989,-0.493029356003
1586436494.71,-53.6305503845,-10.8786659241,-91.6177902222,1.70846438408,-7.70634126663,5.86487960815,0,0,0,2.0864465693,-1.01239689455,-0.184392759106,22.88,-0.00407059021984,0.0054281472536,0.00280591036595,-0.14314801991,-0.108826160431,-0.0708445906639,-0.616849899292,0.544148206711,-0.4595952034
1586436495.13,-54.0393753052,-12.1500234604,-88.9897537231,2.03805470467,-7.84496593475,5.65999364853,0,0,0,2.13753797912,-0.944688305352,-0.196009583331,22.86,-0.00407482584184,0.00541298124309,0.00281002845122,0.125736758113,-0.108124315739,0.0437043644488,-0.630823135376,0.548053026199,-0.424382209778
1586436495.38,-52.6217384338,-12.7195482254,-87.8952484131,2.10010099411,-7.58639955521,5.74280595779,0,0,0,2.17200517619,-0.902351766324,-0.207132660691,22.88,-0.00408510589338,0.00541569971438,0.00279705527282,0.136031970382,-0.106787696481,-0.00669211242348,-0.635894775391,0.54105591774,-0.427034378052
1586436495.65,-51.5336608887,-13.947479248,-87.2024536133,2.18782448769,-7.25822019577,5.86442995071,0,0,0,2.2162289165,-0.852599396752,-0.219756289674,22.88,-0.00411661430167,0.00545062486967,0.00278563095528,0.0553526058793,-0.127014532685,-0.0747665762901,-0.647836923599,0.529019594193,-0.424543619156
1586436495.9,-51.477848053,-15.8889532089,-86.7340393066,2.49232673645,-7.15863704681,5.9398522377,0,0,0,2.26007806064,-0.798409766985,-0.227178561908,22.88,-0.00415123197358,0.00549060357871,0.0027963146785,-0.0361129641533,-0.151141017675,-0.12069644779,-0.667383909225,0.506883859634,-0.408744335175
1586436496.33,-52.4744911194,-25.3992290497,-84.7827224731,4.08113574982,-7.08178710938,5.54339170456,0,0,0,2.29927559517,-0.707250328888,-0.233042751745,22.86,-0.00417402594444,0.00548037706338,0.00282208126918,0.00484213232994,-0.214912012219,-0.281795859337,-0.762958526611,0.414822101593,-0.309673786163
1586436496.59,-52.2173309326,-29.2498970032,-85.2493057251,4.62810468674,-6.61285972595,5.40300035477,0,0,0,2.33120526175,-0.643205038417,-0.233774984847,22.87,-0.00420402792669,0.00550781256915,0.00285056007101,-0.035680834204,-0.142245009542,-0.265580415726,-0.795230388641,0.361340522766,-0.280462741852
1586436496.85,-52.4129867554,-31.7752227783,-85.721282959,5.11412239075,-6.44990110397,5.18332624435,0,0,0,2.36234641761,-0.584289273503,-0.233423979611,22.87,-0.00421314722095,0.00553657593218,0.00286759260556,-0.0218123197556,-0.0611424483359,-0.0940293073654,-0.818516731262,0.327889204025,-0.26012468338
1586436497.11,-51.7692756653,-31.4346179962,-85.7520523071,5.21533632278,-6.51226568222,5.11078071594,0,0,0,2.38891888041,-0.537413377387,-0.236141147744,22.87,-0.00419433505184,0.00554762036384,0.00285392941455,0.122446574271,0.118949264288,0.142351508141,-0.814042806625,0.327242136002,-0.265157938004
1586436497.53,-44.3374290466,-17.6968536377,-90.1451721191,2.71906852722,-6.37863254547,6.85532474518,0,0,0,2.45437753421,-0.441895094299,-0.231191327853,22.86,-0.00424301691953,0.00557567608551,0.00288493434931,0.0410564206541,0.356090784073,0.149644181132,-0.687617301941,0.420904159546,-0.48015499115
1586436497.78,-43.5159492493,-14.3826093674,-91.4995269775,2.2871158123,-6.59696006775,7.05879640579,0,0,0,2.48819119693,-0.383695006716,-0.225574684958,22.87,-0.00427051787276,0.00556511834666,0.00291533219372,0.0473238602281,0.219381645322,0.0983633324504,-0.65158033371,0.44041800499,-0.526816368103
1586436498.04,-42.3642921448,-12.5454349518,-92.6192169189,2.02370047569,-6.53895807266,7.05998849869,0,0,0,2.52328442553,-0.333872597142,-0.227060045539,22.87,-0.0042901442083,0.0055483065275,0.00291123819996,0.0826768651605,0.144527107477,-0.000183284297236,-0.629137992859,0.441663265228,-0.56335568428
1586436498.29,-41.3828086853,-11.8492603302,-93.9047088623,1.80783343315,-6.10186815262,7.07883691788,0,0,0,2.58069945785,-0.283106613855,-0.234556159953,22.87,-0.00432862699485,0.00559381491654,0.00288654890643,-0.00677704950795,0.0963740125299,-0.0587165430188,-0.620164871216,0.429001092911,-0.586762666702
1586436498.73,-44.8954772949,-10.0097770691,-97.133605957,1.80848574638,-6.95543718338,7.05736970901,0,0,0,2.64550631608,-0.209446217357,-0.216382420472,22.85,-0.00430809585329,0.00556741801762,0.00292632033711,0.00476911710575,0.0739492475986,0.0300042387098,-0.598826408386,0.451195001602,-0.590746164322
1586436498.99,-44.4580764771,-9.32897853851,-97.618522644,1.74628567696,-6.84225845337,6.99742126465,0,0,0,2.68576968034,-0.172432993687,-0.2036319075,22.86,-0.00427741339105,0.0055550726511,0.00294213832881,0.00470653222874,0.075032569468,-0.00778436660767,-0.59227848053,0.449142932892,-0.601452112198
1586436499.25,-44.9514579773,-8.96359443665,-98.9302062988,1.51610386372,-6.90885257721,6.90040445328,0,0,0,2.72929310157,-0.127496283007,-0.198543482708,22.87,-0.00427908827424,0.00554256420768,0.00294919060249,-0.122679769993,0.11826530844,-0.085024535656,-0.586632728577,0.455189943314,-0.60937333107
1586436499.51,-46.1343421936,-8.85516834259,-100.605995178,1.37223601341,-6.98131036758,6.6964430809,0,0,0,2.77825842701,-0.0795719872171,-0.200855734998,22.87,-0.00430503863206,0.00554335988251,0.00294406265307,-0.130191460252,0.0934042036533,-0.0838041305542,-0.583974599838,0.447229862213,-0.609931468964
1586436499.93,-53.511013031,-9.24944210052,-104.795509338,1.33974182606,-7.65755987167,6.02739286423,0,0,0,2.86726768427,0.00984874159509,-0.190903487189,22.86,-0.00435040525483,0.00556762777688,0.00299556977116,-0.296133756638,0.08459315449,-0.0489950180054,-0.590911149979,0.486241579056,-0.576383829117
1586436500.19,-55.7433776855,-8.83635616302,-105.430023193,1.27181875706,-8.15850353241,5.96281385422,0,0,0,2.90506990657,0.0834550239586,-0.172200351285,22.86,-0.00439548365597,0.00553896398162,0.00309338773901,-0.0983953475952,0.0202663261443,0.0589020587504,-0.584912776947,0.507427692413,-0.560459136963
1586436500.45,-55.3643112183,-8.13424015045,-104.626602173,1.28276562691,-8.19746875763,5.74675703049,0,0,0,2.94066061382,0.139883946519,-0.165267892709,22.87,-0.00441534166993,0.00549820993924,0.00313675769739,0.132564470172,-0.0707358121872,0.108798600733,-0.577394485474,0.515738248825,-0.557721376419
1586436500.71,-53.9602203369,-8.19383525848,-103.443504333,1.34399402142,-7.79632472992,5.45483732224,0,0,0,2.99822330863,0.174773956622,-0.181928040596,22.87,-0.00442534866927,0.00550837059802,0.00308491642914,0.0714041516185,-0.0987038239837,-0.00457465741783,-0.578268051147,0.509140253067,-0.562806367874
1586436501.13,-62.2629814148,-9.89805316925,-104.557479858,1.5295689106,-8.85322475433,4.89427852631,0,0,0,3.05651190993,0.271395676872,-0.175803094268,22.85,-0.00445562880306,0.00544899934576,0.0031624259865,-0.206716328859,0.0298880022019,0.100072458386,-0.600551366806,0.547430753708,-0.479547262192
1586436501.38,-62.9079399109,-8.3082075119,-103.792648315,1.36440730095,-8.95719432831,4.64150333405,0,0,0,3.08232719948,0.326574819126,-0.174733573855,22.86,-0.00446541177801,0.0053862823377,0.00320517409417,0.0537999086082,-0.0334680117667,0.189412385225,-0.586354732513,0.575996160507,-0.47251701355
1586436501.65,-62.4800834656,-6.96845340729,-102.318855286,1.17813885212,-8.61543464661,4.45783948898,0,0,0,3.13777640007,0.369819070204,-0.186126781234,22.87,-0.0044670388314,0.00538991480021,0.00319588880568,-0.00770241115242,-0.0865101888776,0.128094106913,-0.570798873901,0.5948574543,-0.467641830444
1586436501.91,-63.688873291,-6.50781393051,-101.39666748,1.05276060104,-8.54845809937,4.09759235382,0,0,0,3.20782288063,0.406928742938,-0.210855337146,22.87,-0.00447814342519,0.00542699679868,0.0031503543886,-0.186191484332,-0.0149816274643,0.0205956399441,-0.567151784897,0.612512588501,-0.447439908981
1586436502.32,-69.1688461304,-1.59148490429,-104.134941101,0.0125946858898,-9.23477363586,3.79226613045,0,0,0,3.29305036977,0.497546839341,-0.227719901124,22.85,-0.00452969265915,0.00541281408917,0.00321095051333,-0.0299379285425,0.0951893776655,0.331383258104,-0.504244804382,0.68954873085,-0.415190458298
1586436502.58,-69.4337768555,1.61778640747,-103.33757782,-0.334923624992,-9.42515850067,3.51070451736,0,0,0,3.33146654687,0.538795640546,-0.245393729432,22.86,-0.00454053300572,0.00536326989584,0.00322319754042,-0.0625029206276,-0.0409379638731,0.205194219947,-0.461668729782,0.727259159088,-0.411154985428
1586436502.84,-71.0661697388,1.69823718071,-102.564193726,-0.297462940216,-9.15197086334,2.97005391121,0,0,0,3.4032134829,0.563926477271,-0.275932183511,22.86,-0.00454102414252,0.00538773366305,0.00317929424863,-0.260148942471,-0.0866696313024,-0.10680256784,-0.466776609421,0.738574981689,-0.381604671478
1586436503.1,-74.9120635986,-0.359768897295,-102.598457336,-0.143614932895,-9.12004184723,2.51670408249,0,0,0,3.49405213263,0.611720777701,-0.305324200836,22.85,-0.00458193318226,0.0054587404422,0.00317107093203,-0.399541914463,-0.016251206398,-0.170531883836,-0.492891073227,0.738493680954,-0.328294277191
1586436503.53,-82.6166000366,-1.69224262238,-102.14491272,0.26602524519,-10.0751609802,1.4900290966,0,0,0,3.55766762357,0.682338947741,-0.338516677236,22.84,-0.0045858629442,0.00538675092855,0.00321739824323,-0.102691374719,-0.0778406858444,-0.078314550221,-0.524640083313,0.749374389648,-0.210307836533
1586436503.78,-83.3765945435,-3.05032634735,-101.601356506,0.395608872175,-9.98961162567,1.15187180042,0,0,0,3.59307457275,0.727337780225,-0.37418610534,22.86,-0.00461110872162,0.00533326459826,0.00322094607654,-0.0157877858728,-0.0352308191359,-0.102894023061,-0.542232751846,0.737819910049,-0.195924282074
1586436504.04,-82.3811264038,-3.45337557793,-101.562728882,0.43900924921,-9.90876102448,1.33525204659,0,0,0,3.63292172774,0.776042309752,-0.409628904079,22.85,-0.00464169347916,0.00529114260822,0.00322762663443,0.187966972589,0.00481382058933,0.0605814233422,-0.54639339447,0.734270811081,-0.208258390427
1586436504.31,-79.024520874,-1.98231172562,-101.125366211,0.261463105679,-9.88047981262,1.77561235428,0,0,0,3.67100846173,0.814095447785,-0.449556864743,22.85,-0.00465703175367,0.00523793086685,0.00320768992947,0.335045963526,-0.0568568781018,0.167938321829,-0.527043581009,0.736913442612,-0.248768091202
1586436504.73,-74.2884063721,-1.96231269836,-99.6734619141,-0.16697743535,-8.59914684296,2.71257448196,0,0,0,3.84786068607,0.918070510903,-0.504789608615,22.84,-0.00476124696019,0.00541240331422,0.00321921259069,-0.121639676392,0.0981636494398,0.0161997992545,-0.522495508194,0.722514867783,-0.306967496872
1586436504.98,-75.1593704224,-0.411566883326,-100.873580933,-0.294597506523,-9.20767593384,3.18898487091,0,0,0,3.93108265263,1.02359445093,-0.50471559439,22.85,-0.00483661253618,0.00546990949126,0.00336046571214,0.0111095625907,0.130186244845,0.207958415151,-0.501160860062,0.741925954819,-0.305504083633
1586436505.24,-73.745262146,2.59423732758,-101.427078247,-0.587016224861,-9.86923599243,3.32408618927,0,0,0,3.94569460792,1.10716152167,-0.506915035431,22.86,-0.00486553595752,0.00537326422303,0.00348158570811,0.164119154215,0.0906460061669,0.213214039803,-0.45797753334,0.765172719955,-0.330080032349
1586436505.5,-72.3285827637,3.93795633316,-101.667541504,-0.681946992874,-9.84772586823,3.11252593994,0,0,0,3.95724217498,1.15385140773,-0.529378917442,22.85,-0.00486623845456,0.00526310924968,0.00351017981817,0.041820846498,0.0194676220417,0.0112123796716,-0.432998180389,0.772042512894,-0.358198642731
1586436505.93,-77.3944473267,2.2230758667,-98.479927063,-0.474235236645,-9.40622806549,2.0803463459,0,0,0,4.07704472051,1.22108884463,-0.58782059091,22.84,-0.00488513594834,0.00529671523371,0.00349674775864,-0.129160299897,-0.129668414593,0.0681050047278,-0.468054294586,0.781630516052,-0.251531124115
1586436506.19,-78.532951355,2.72081255913,-97.3904876709,-0.48257368803,-9.36765098572,1.93858778477,0,0,0,4.16276318947,1.25978460367,-0.618779739336,22.85,-0.00488762169243,0.0053465427969,0.00349395490174,-0.101085007191,-0.0307351350784,0.0558488108218,-0.464037418365,0.79762172699,-0.224844932556
1586436506.45,-79.3334274292,3.19653534889,-97.6027603149,-0.747109234333,-9.38167095184,2.00782012939,0,0,0,4.25154226933,1.32494503009,-0.649918034889,22.85,-0.00492929410547,0.00539834164952,0.00353490670428,-0.0470638312399,0.071819871664,0.0273533184081,-0.455655097961,0.800982952118,-0.210124731064
1586436506.71,-79.2806015015,3.54486179352,-98.6966094971,-0.937712371349,-9.43106651306,2.09608888626,0,0,0,4.33799275655,1.40525510886,-0.685732680839,22.86,-0.00499923649981,0.0054386448855,0.00359308946123,0.0462390519679,0.105796009302,0.00228062272072,-0.453582525253,0.801307916641,-0.225990533829
1586436507.13,-78.1863098145,2.85242486,-97.9811325073,-0.348235815763,-10.1300287247,1.92959237099,0,0,0,4.38427210147,1.4546906978,-0.742966561919,22.84,-0.00496791986999,0.00532187630605,0.0035752906137,0.106712438166,-0.126284360886,0.0344567038119,-0.458137512207,0.792168140411,-0.228517532349
1586436507.39,-75.7080688477,2.95630741119,-96.2906112671,-0.448513537645,-9.45506000519,2.1032063961,0,0,0,4.45429716129,1.46832746494,-0.792972548984,22.85,-0.00495443903624,0.00532972761823,0.00350581057003,0.216203227639,-0.138373672962,0.008574873209,-0.456639051437,0.793573379517,-0.248723983765
1586436507.65,-74.5061569214,1.7450979948,-95.2470169067,-0.430334419012,-8.87089633942,2.48584413528,0,0,0,4.58446372217,1.51152964644,-0.837298992388,22.85,-0.00498196416168,0.00545474112828,0.00347603113782,-0.0529929995537,-0.0916048958898,-0.144691765308,-0.472977638245,0.780136823654,-0.256546497345
1586436507.91,-76.2276535034,-0.179612085223,-95.0350112915,-0.224325835705,-9.1062669754,2.48730659485,0,0,0,4.69569898742,1.58640688551,-0.875446004155,22.85,-0.00503650046491,0.00554618750544,0.00350844861744,-0.226160883904,-0.0479146838188,-0.147239878774,-0.502032518387,0.765264749527,-0.230976819992
1586436508.33,-79.6749038696,-3.79098987579,-90.2024078369,0.658480942249,-9.66219234467,2.01503515244,0,0,0,4.78170067566,1.68578322509,-0.926680866558,22.83,-0.00503317067684,0.00553895236623,0.00356492697499,0.0639878287911,-0.190110504627,0.0468425564468,-0.551702260971,0.739683389664,-0.13107252121
1586436508.58,-78.9489364624,-3.22169947624,-88.3286972046,0.534603357315,-9.74906730652,1.95685601234,0,0,0,4.82062045054,1.74225885713,-0.968843588787,22.85,-0.00503579777753,0.00550869438757,0.00358141980324,0.0390775538981,-0.0972539260983,0.11548922956,-0.540567159653,0.749890089035,-0.120218992233
1586436508.84,-79.1266555786,-1.92184472084,-87.6165466309,0.239582613111,-9.76209354401,1.77191269398,0,0,0,4.86238142455,1.78944795699,-1.02946517103,22.85,-0.00505458493115,0.00547880512146,0.00356314102563,-0.0896692350507,0.00726506207138,0.124878458679,-0.524266242981,0.766605854034,-0.112543344498
1586436509.1,-81.3292312622,-0.80963152647,-88.1930236816,-0.0680174827576,-9.81800937653,1.49391114712,0,0,0,4.9084997984,1.85108094751,-1.09660601867,22.84,-0.00509941109265,0.00545165400375,0.00356541124407,-0.25869756937,0.0719137564301,0.0627242103219,-0.512208938599,0.772925615311,-0.0854911804199
1586436509.53,-91.6790008545,0.53847271204,-91.8818817139,-0.403996139765,-9.82967281342,-0.0246703159064,0,0,0,5.00910426077,1.95500930948,-1.1923427617,22.84,-0.00516798642936,0.00544601998975,0.00362333479074,-0.217457130551,0.156397372484,0.0739164724946,-0.509131669998,0.784222364426,0.0307965278625
1586436509.79,-92.9359436035,1.26042020321,-93.5134658813,-0.444212734699,-10.0764970779,-0.667220234871,0,0,0,5.04301873586,1.98937999777,-1.28136130212,22.84,-0.0052182346621,0.00538256380248,0.00358525621282,-0.0442385748029,0.118326418102,0.0642649903893,-0.501130819321,0.788741111755,0.0342621803284
1586436510.04,-93.239982605,1.3452064991,-94.6238708496,-0.649050414562,-9.83012294769,-0.859862565994,0,0,0,5.11141893131,2.02285880484,-1.3936488327,22.85,-0.00531147264466,0.00537333321524,0.00351549006311,-0.0792086049914,0.0822626054287,-0.0343874134123,-0.50231385231,0.78925204277,0.0261838436127
1586436510.3,-95.7140884399,0.0844314172864,-95.7524719238,-0.291693687439,-9.43711090088,-0.989467740059,0,0,0,5.22349017568,2.07392830974,-1.46909347858,22.84,-0.0053728156016,0.00544580214508,0.00351200808215,-0.349901646376,0.163169965148,-0.140079855919,-0.521079778671,0.772602319717,0.0481767654419
1586436510.73,-95.4033279419,-0.948664486408,-103.817085266,0.0364629551768,-10.2420692444,-0.913966178894,0,0,0,5.28293396057,2.14155268602,-1.56146626428,22.83,-0.00540036773141,0.00533740126803,0.00351312723963,0.337267667055,0.0726960599422,0.0164188463241,-0.526605606079,0.770643234253,-0.0351223945618
1586436510.98,-91.9981613159,-1.3352316618,-104.302566528,0.250756859779,-9.75095367432,-0.611841142178,0,0,0,5.36402857522,2.15075868002,-1.61836056522,22.84,-0.00539420559636,0.00534837197363,0.00345082016704,0.204711407423,0.046268850565,-0.0572413243353,-0.525015115738,0.765838623047,-0.0949831008911
1586436511.25,-91.1573104858,-2.40021753311,-105.452613831,0.252213716507,-9.30233860016,-0.314144134521,0,0,0,5.50922087731,2.19127172323,-1.67425239901,22.85,-0.00542925618309,0.0054611630854,0.00342372934899,-0.0555872991681,0.154382780194,-0.108191385865,-0.535166978836,0.755850076675,-0.120696783066
1586436511.5,-90.64793396,-2.64690542221,-107.766464233,0.467188477516,-9.55210876465,-0.0270444899797,0,0,0,5.61698939115,2.23990942783,-1.69865511909,22.84,-0.00542472156863,0.00551724455718,0.00344234391308,0.220025345683,0.2297334373,0.139191001654,-0.533930063248,0.754009008408,-0.147697210312
1586436511.93,-79.4097671509,1.21265745163,-109.957298279,-0.254960745573,-9.32188034058,1.61662566662,0,0,0,5.7980982649,2.29338486904,-1.75329164602,22.83,-0.00543441055378,0.00559012359641,0.00339859718971,-0.020624699071,-0.0501111149788,-0.0927656814456,-0.459297418594,0.760686159134,-0.331024646759
1586436512.19,-81.2233505249,-0.27354156971,-110.49571228,-0.156633540988,-9.31348323822,1.47750675678,0,0,0,5.93682564166,2.34878460666,-1.79516375476,22.84,-0.00548025033365,0.00567772328867,0.00339335881356,-0.313676893711,0.0938870087266,-0.187291219831,-0.482190847397,0.751318216324,-0.308530092239
1586436512.45,-85.5511627197,-2.92999362946,-112.169670105,0.300116688013,-9.74266338348,1.01994001865,0,0,0,6.02528805576,2.43809058206,-1.82641214006,22.84,-0.00552570708138,0.00568324429004,0.0034528590652,-0.402952820063,0.129013508558,-0.269852668047,-0.518400907516,0.73619890213,-0.2657995224
1586436512.71,-89.5244140625,-5.74728775024,-113.515365601,0.822958528996,-10.0168991089,0.300269782543,0,0,0,6.07000157706,2.52185581908,-1.8632433169,22.84,-0.00556162815771,0.00562344254359,0.00350290648805,-0.317898392677,0.0713385641575,-0.219595447183,-0.5564494133,0.712753772736,-0.228134393692
1586436513.13,-103.75566864,-13.6025409698,-113.174285889,2.12329411507,-9.19049263,-2.33387804031,0,0,0,6.20410014796,2.60854304602,-1.95817511482,22.82,-0.00560372315418,0.00563949044709,0.00348662145069,-0.608266949654,0.0468693710864,-0.298731029034,-0.661802053452,0.627935171127,-0.0570135116577
1586436513.39,-110.72744751,-17.0995903015,-112.973754883,2.48174238205,-8.75151348114,-3.07974886894,0,0,0,6.28255351044,2.71336162485,-2.04013764738,22.83,-0.00569736305399,0.0056432883375,0.00354215331362,-0.599603354931,0.0900171771646,-0.272135436535,-0.706897258759,0.574728488922,-0.00354337692261
1586436513.65,-117.739700317,-19.7505722046,-112.611946106,2.89468789101,-8.13646411896,-4.07249832153,0,0,0,6.36381419268,2.81567741542,-2.13638743736,22.84,-0.00579544764084,0.00565110605821,0.0035946794035,-0.626881480217,0.0367023162544,-0.170305401087,-0.738644123077,0.524279594421,0.0596413612366
1586436513.91,-125.312385559,-21.0725574493,-111.758354187,3.32126021385,-7.47057342529,-5.27116298676,0,0,0,6.43424986234,2.86924790097,-2.22928554735,22.83,-0.00584313653996,0.005650270163,0.00359901733496,-0.658898115158,-0.0290602501482,-0.108152635396,-0.759440660477,0.480213880539,0.131175041199
1586436514.33,-149.02520752,-23.9174461365,-106.789466858,3.91206860542,-4.82404565811,-7.72719240189,0,0,0,6.50101363074,2.86801718009,-2.38219836058,22.82,-0.00585770503322,0.00559980548698,0.00358958668374,-0.624078631401,-0.0117674497887,-0.198598235846,-0.810662269592,0.278737068176,0.314342737198
1586436514.59,-157.290878296,-24.8282051086,-104.228439331,3.81283116341,-3.55027842522,-8.39500808716,0,0,0,6.549311381,2.84845698271,-2.51898346588,22.83,-0.00593000760856,0.00557171191082,0.00354585333539,-0.641560554504,-0.0195339340717,-0.227625712752,-0.825152635574,0.184636354446,0.355439662933
1586436514.85,-164.907272339,-25.9681167603,-101.520439148,3.98505449295,-2.29367733002,-8.81552219391,0,0,0,6.6162476098,2.79797875446,-2.66140279966,22.83,-0.00600350544464,0.00557100849023,0.00347379631187,-0.483574062586,0.0857226699591,-0.216047510505,-0.835874319077,0.093266248703,0.373210430145
1586436515.11,-170.09173584,-28.2217025757,-99.3964004517,4.27476406097,-1.4555901289,-8.59182929993,0,0,0,6.680764178,2.76736906554,-2.79356806125,22.83,-0.00609002042693,0.00557729294981,0.00345518714161,-0.292927026749,0.20404830575,-0.181271150708,-0.855268716812,0.0211565494537,0.350754976273
1586436515.53,178.595993042,-33.8095664978,-91.9271621704,5.4042057991,0.116028383374,-8.27721500397,0,0,0,6.72910130575,2.64030292736,-2.92877329585,22.82,-0.00610231985994,0.00555568076687,0.00342396646634,-0.235933095217,0.0646792426705,-0.199078023434,-0.884360074997,-0.142081975937,0.266253709793
1586436515.78,174.79208374,-34.4146537781,-89.4549331665,5.48024845123,0.676915585995,-8.1885766983,0,0,0,6.7559306983,2.54940972548,-3.01165670632,22.83,-0.00611701030121,0.00554024358765,0.00339257677713,-0.208962008357,0.0651352182031,-0.136549770832,-0.883655309677,-0.186697244644,0.246430397034
1586436516.05,171.768936157,-35.0531921387,-87.6759033203,5.54771471024,1.10748660564,-8.11151885986,23.0648,15.7968,0.699630365756,13.5904814626,6.67102929166,-2.51903134724,22.83,-0.00805116576824,0.0122787620476,0.00745961736652,-0.163178190589,0.0744305551052,-0.0972300991416,-0.88238286972,-0.222534656525,0.2294485569
1586436516.31,169.413040161,-35.7118148804,-86.2542266846,5.61071968079,1.41872131824,-7.87474966049,0,0,0,13.652209638,6.53424840604,-2.67018337704,22.83,-0.00807260608751,0.0122679705013,0.00744995246452,-0.120824590325,0.0665061250329,-0.0759914591908,-0.881971120834,-0.250769853592,0.209951162338
1586436516.73,168.09223938,-33.9017486572,-85.479675293,5.64558410645,1.59952676296,-7.85747385025,0,0,0,13.749788668,6.31219190379,-2.86514040077,22.82,-0.00803797096221,0.012252392539,0.00747009661521,0.112547747791,-0.0784009695053,0.0747658386827,-0.873767137527,-0.268802165985,0.229863166809
1586436516.98,171.198181152,-33.7096405029,-86.986328125,5.5055065155,1.20519256592,-8.03141307831,0,0,0,13.8139513938,6.18446050207,-2.99992049247,22.83,-0.00802511240425,0.0122426924284,0.00747551876012,0.225167766213,-0.01620054245,0.121165081859,-0.878567457199,-0.236531019211,0.243067741394
1586436517.24,174.820556641,-33.6995277405,-88.6315765381,5.45073318481,0.665564358234,-8.27606391907,3.608,-6.6574,0.756116103501,10.7257745316,3.24941280656,-2.51526790607,22.83,-0.00596697706113,0.00919742370803,0.00477373368792,0.224754989147,-0.0202193912119,0.126270204782,-0.87898516655,-0.200037717819,0.256343841553
1586436517.5,178.320602417,-33.4652175903,-90.3289642334,5.38578987122,0.265702724457,-8.41228103638,0,0,0,10.7950045926,3.15979015227,-2.63652767241,22.83,-0.00597014092093,0.00919860062034,0.00473365405671,0.209600508213,-0.0296741761267,0.127022728324,-0.878163576126,-0.161262512207,0.271722316742
1586436517.93,-171.213150024,-32.9230880737,-96.3586883545,5.11400413513,-1.10668051243,-8.11026477814,0,0,0,10.9275599898,3.10000383674,-2.86177874749,22.82,-0.00600684911419,0.00921945865131,0.00473914851973,0.203671336174,0.00788346026093,0.162860035896,-0.880174875259,-0.0312604904175,0.271201848984
1586436518.18,-167.568099976,-32.5697631836,-98.410118103,4.97470140457,-1.70898795128,-7.93742036819,0,0,0,11.0074030432,3.08739613349,-3.00755955549,22.82,-0.00605968200236,0.00922821202803,0.00476322382031,0.213495671749,-0.0167980790138,0.156133636832,-0.879096508026,0.0175487995148,0.267517805099
1586436518.44,-164.272720337,-31.7855224609,-100.106903076,4.81069564819,-2.3197517395,-7.88745117188,0,0,0,11.0814963382,3.08537073311,-3.1591019762,22.83,-0.00612220055428,0.00921672142648,0.00478728842629,0.177570432425,-0.0552594698966,0.13195052743,-0.874650239944,0.0562031269073,0.271400690079
1586436518.7,-161.93536377,-30.5392169952,-101.163566589,4.59488391876,-2.7502925396,-7.97137928009,23.3716,15.8047,0.817556730522,14.1884830793,5.29760447004,-3.00621308037,22.83,-0.00653507395371,0.0122605064804,0.00720976520187,0.112748891115,-0.102481253445,0.0900454893708,-0.864964962006,0.088695526123,0.283317089081
1586436519.13,-160.550109863,-26.810667038,-99.7596664429,4.5268239975,-3.03605771065,-8.51309776306,0,0,0,14.365487756,5.2864847685,-3.28554013431,22.81,-0.00651803929575,0.0122410513356,0.00716643588331,-0.0379905104637,-0.0781536176801,-0.0455051660538,-0.846073150635,0.109055757523,0.33890414238
1586436519.39,-161.746276855,-26.4093914032,-98.6475219727,4.47043800354,-2.68483877182,-8.58276557922,0,0,0,14.4818432324,5.26839857333,-3.45237126701,22.82,-0.00649908147933,0.0122480055915,0.0071271728999,-0.105656698346,-0.0416457764804,-0.082384057343,-0.847478151321,0.0918700695038,0.350759983063
1586436519.64,-163.338500977,-26.4874992371,-97.6522140503,4.59173059464,-2.25071358681,-8.52214336395,0,0,0,14.6073246776,5.25022455044,-3.61137406488,22.83,-0.00646110796661,0.0122845205746,0.00710984996624,-0.129017233849,0.0142939398065,-0.0269144773483,-0.847675561905,0.0644052028656,0.362074375153
1586436519.9,-164.294769287,-26.7630462646,-97.6375045776,4.56665706635,-2.22217512131,-8.20665645599,0,0,0,14.724221392,5.24783432938,-3.77540268564,22.82,-0.00643519032274,0.0123062557473,0.00714693442593,-0.103777654469,0.014803561382,0.0440277159214,-0.846575737,0.0574367046356,0.357121706009
1586436520.33,-150.321212769,-27.4370956421,-101.235107422,4.84177684784,-4.60775899887,-7.6572766304,0,0,0,14.8902717926,5.30270481997,-4.03735002215,22.81,-0.00638230697171,0.0122633982941,0.0071284888275,0.793143451214,0.129949331284,0.0219486709684,-0.845578670502,0.189415693283,0.286409139633
1586436520.59,-136.971588135,-28.5167255402,-102.36730957,4.78084850311,-6.13032531738,-6.76385831833,0,0,0,14.9900693205,5.35519624706,-4.19006095813,22.83,-0.00636608763716,0.0122237987315,0.00704891663691,1.4806214571,0.0886075720191,0.0508927106857,-0.84130859375,0.262777805328,0.197172880173
1586436520.84,-117.010169983,-27.0391178131,-103.040382385,3.84988999367,-7.57036590576,-4.39756155014,0,0,0,15.1275197107,5.46280016849,-4.34225077361,22.83,-0.00646624464718,0.0122473460314,0.00697829471076,1.78215014935,-0.179925739765,0.270789414644,-0.820314884186,0.368614435196,0.0691533088684
1586436521.1,-98.508392334,-21.9463348389,-101.815666199,3.18691730499,-8.70001220703,-1.87658178806,0,0,0,15.2888289349,5.58586047775,-4.44548412439,22.83,-0.00654411860768,0.0122834817985,0.00689064595309,1.48098361492,-0.196346759796,0.499140799046,-0.771007299423,0.476968288422,-0.0551834106445
1586436521.52,-59.3417549133,-3.57814788818,-94.6881332397,0.477369874716,-8.50149726868,5.10762786865,0,0,0,15.5535112506,5.80087869099,-4.46540246562,22.81,-0.00656668455262,0.0122705009059,0.00690824851508,0.753521203995,0.00705346604809,0.407976686954,-0.53608584404,0.640497684479,-0.450574398041
1586436521.78,-50.2617950439,-0.717733383179,-92.0507354736,0.160893052816,-7.70733261108,6.36697101593,0,0,0,15.7109137462,5.93242704791,-4.4614032338,22.82,-0.00656013273796,0.0122456810504,0.0069218393969,0.829132795334,-0.0892371162772,0.282075315714,-0.487837314606,0.613417625427,-0.547709703445
1586436522.04,-40.008934021,0.149542048573,-89.3185272217,-0.087467931211,-6.41123962402,7.38551187515,3.5754,-7.3806,0.821520641942,12.8024384108,3.71080233239,-3.62456880244,22.82,-0.00530117615462,0.00939401358869,0.00468609774557,0.924996554852,-0.126317173243,0.165481165051,-0.464577674866,0.551287651062,-0.646899461746
1586436522.3,-29.4583187103,-0.0572352930903,-87.4439315796,-0.015596056357,-4.68836927414,8.32930755615,0,0,0,12.9435629911,3.80162975464,-3.60289246246,22.82,-0.00530328635852,0.00940981634951,0.00465217875334,0.875685572624,-0.08174033463,0.116721563041,-0.457057952881,0.449319601059,-0.730883359909
1586436522.73,-6.79424285889,2.13442587852,-84.707824707,-0.404696762562,-0.963540554047,9.81102848053,0,0,0,13.1677753036,3.95395958713,-3.51342650965,22.8,-0.00530772500232,0.00943576351415,0.00466436279527,0.482589751482,0.0653646886349,0.0882469192147,-0.412078857422,0.191686868668,-0.892596721649
1586436522.99,-1.50657904148,2.87752485275,-83.8015518188,-0.505376696587,-0.111616879702,9.94387531281,0,0,0,13.3039616106,4.04836194683,-3.45088608602,22.81,-0.00530831732384,0.00945550408849,0.00468789680933,0.421785533428,0.0527046620846,0.0880263820291,-0.398974180222,0.123586893082,-0.913851499557
1586436523.24,3.17603039742,3.38592386246,-82.8311691284,-0.617337346077,0.630353271961,9.92500686646,0,0,0,13.4358519427,4.13899612661,-3.38410297528,22.82,-0.00531330850885,0.00946706302734,0.00471076078032,0.378354638815,0.0338606461883,0.0797890201211,-0.387458086014,0.0667939186096,-0.930905580521
1586436523.51,7.44823694229,3.60224437714,-81.9864883423,-0.855495810509,1.38736343384,9.92058372498,0,0,0,13.5739552921,4.23597709992,-3.31766787697,22.81,-0.00535096780668,0.00948211646652,0.00474478631377,0.314185798168,-0.0109776863828,0.0377945639193,-0.382591485977,0.00710487365723,-0.93544459343
1586436523.93,13.8732995987,4.32883882523,-83.1383285522,-0.676465511322,2.41787338257,9.34680175781,23.9075,15.7839,0.984041010192,16.0590297222,6.18581983343,-2.91256593456,22.79,-0.00556645495868,0.0116120093157,0.00654043076443,-0.0395521558821,0.138079375029,-0.117078430951,-0.378088474274,-0.102405071259,-0.93834233284
1586436524.19,12.545217514,7.23361110687,-83.9070205688,-0.45374584198,2.25363922119,9.54283332825,0,0,0,16.2344538988,6.25298038897,-2.78160558859,22.81,-0.005443392638,0.0116335124232,0.006545178755,-0.163777217269,0.302017509937,-0.0984311252832,-0.340154409409,-0.0657916069031,-0.981918811798
1586436524.45,9.27065563202,10.3862867355,-83.7745361328,-1.38541889191,1.85570657253,9.42945194244,0,0,0,16.4217836488,6.32639072964,-2.68344229735,22.81,-0.00538082107974,0.0116732576634,0.00653034690926,-0.426961541176,0.196041956544,0.000721961376257,-0.293194055557,-0.0346391201019,-0.995972156525
1586436524.71,3.31508755684,11.9416646957,-83.3181228638,-2.2703666687,0.810850858688,9.07322502136,0,0,0,16.6130480706,6.40119021065,-2.63142165831,22.81,-0.00541536806359,0.0117009127736,0.00645154492327,-0.586793005466,0.141290619969,0.0622652620077,-0.267025470734,0.0634796619415,-1.00088620186
1586436525.13,-6.98402690887,21.4671878815,-78.2442550659,-3.38629007339,-1.21372747421,8.91321086884,4.2164,-6.2431,1.09800346354,14.3331740531,4.6844926954,-2.3020464544,22.8,-0.00441169216263,0.00948125900976,0.00482591680875,0.0622026696801,0.264275819063,0.159097462893,-0.105407714844,0.294535398483,-0.989853382111
1586436525.39,-5.66630268097,24.7279872894,-77.2411422729,-4.1253080368,-0.889890432358,8.94344139099,0,0,0,14.4768665601,4.78072064299,-2.29441351543,22.81,-0.00441425914501,0.00947911803571,0.00483608298308,0.0238589979708,0.268606126308,0.0645645037293,-0.0518341064453,0.288506031036,-0.999750375748
1586436525.64,-6.85999584198,27.6832313538,-77.5256500244,-4.25458908081,-0.982079267502,8.87177753448,0,0,0,14.6242860986,4.87697072378,-2.2814392823,22.81,-0.00436717756959,0.00948824339129,0.00487205071577,-0.199025884271,0.249496847391,-0.00721514364704,-0.00571370124817,0.306868076324,-0.998381614685
1586436525.91,-9.56423950195,30.2522068024,-77.6892547607,-5.01060247421,-1.53725290298,8.79423427582,0,0,0,14.7670955791,4.98511842945,-2.29002414377,22.81,-0.00437800383609,0.00947261705758,0.00493662949121,-0.260414212942,0.194559216499,0.0402368605137,0.0344264507294,0.352952957153,-0.976222991943
1586436526.33,-27.1266098022,35.0086555481,-79.0447921753,-5.61492538452,-3.84886193275,7.35964012146,0,0,0,15.0057205371,5.1138702415,-2.36905602439,22.8,-0.00437630002472,0.00944863938561,0.00496630103873,-0.018484890461,-0.0597327984869,0.205986946821,0.0925607681274,0.614501953125,-0.826193094254
1586436526.59,-23.6387958527,34.8814086914,-76.2696914673,-5.48028087616,-3.34550428391,7.31213331223,0,0,0,15.1485055764,5.19303878426,-2.4113677057,22.81,-0.00435568894676,0.00943232092674,0.00495484790184,0.303918898106,-0.118930660188,0.150343075395,0.102380990982,0.587619304657,-0.840937614441
1586436526.84,-17.3963851929,34.1786117554,-73.9635314941,-5.481341362,-2.49864172935,7.7704744339,0,0,0,15.288565973,5.2873003572,-2.44346414121,22.81,-0.00435050202655,0.00942197408151,0.00495708934353,0.529739975929,-0.146405413747,0.123316794634,0.102710485458,0.51914024353,-0.887951135635
1586436527.1,-10.3894872665,32.2971305847,-72.4738693237,-5.27127742767,-1.43253231049,8.07363033295,0,0,0,15.4358318843,5.38988644648,-2.46294174031,22.81,-0.00435371563367,0.00942848486445,0.00494327575416,0.491621434689,-0.237813621759,0.0111497966573,0.0824093818665,0.420421123505,-0.941766500473
1586436527.53,-4.35786437988,26.9089241028,-73.9256668091,-4.34922552109,-0.523891448975,8.5453081131,0,0,0,15.6804268996,5.55120473924,-2.45226135603,22.79,-0.00433739610681,0.0094456437555,0.00491467697483,-0.143504142761,0.0262536164373,-0.032913684845,-0.00844192504883,0.297836303711,-0.994416952133
1586436527.79,-6.60708808899,27.2321548462,-74.1524810791,-4.39041090012,-0.804622769356,8.69351768494,0,0,0,15.8363126974,5.65423674555,-2.44637727704,22.8,-0.00431967531906,0.00947204362495,0.00491888175269,-0.232635438442,0.0213794410229,0.00814125034958,-0.00127816200256,0.335574626923,-0.98287987709
1586436528.04,-8.98352336884,27.5289726257,-73.7851104736,-4.54340028763,-1.32657659054,8.48487377167,5.6511,-6.5158,1.45574646926,13.8364606334,3.77816281115,-2.23971577996,22.8,-0.00320376395847,0.00772008639077,0.00328333908364,-0.200921341777,0.0181384384632,0.0569187216461,0.0029022693634,0.377381563187,-0.966905355453
1586436528.31,-10.0364685059,27.9199943542,-72.8632888794,-4.67562437057,-1.45198094845,8.42767906189,0,0,0,13.9608071357,3.8629884341,-2.2594319886,22.8,-0.00321520919098,0.00772579834663,0.00326618806566,-0.0687092617154,0.0123627483845,0.0983692705631,0.0124275684357,0.40386390686,-0.957395792007
1586436528.73,-8.21093273163,27.7701053619,-70.249206543,-4.48269081116,-1.26191782951,8.73726177216,0,0,0,14.1491905709,4.01079894351,-2.27017106856,22.78,-0.00320104860837,0.00772310840507,0.00328744380808,0.0550054050982,-0.0213086605072,0.0317730046809,0.0189890861511,0.398988962173,-0.957860469818
1586436528.99,-7.81866979599,27.5691490173,-70.0231323242,-4.44864320755,-1.26667118073,8.58267402649,0,0,0,14.2638283758,4.09826695049,-2.27731879351,22.79,-0.00318646345314,0.00771145873241,0.00328083391054,-0.0240191817284,-0.0142276296392,0.00338479899801,0.017235994339,0.393921375275,-0.959337234497
1586436529.25,-8.64882564545,27.3959941864,-70.1157150269,-4.54772615433,-1.32445418835,8.75262737274,0,0,0,14.3828511791,4.19589374842,-2.28530579041,22.79,-0.00319120489257,0.00770902921284,0.00330175470618,-0.110457845032,-0.0169828534126,-0.00683367298916,0.0138306617737,0.407226324081,-0.952137231827
1586436529.51,-9.23593521118,27.1926326752,-69.8911514282,-4.56458044052,-1.41254210472,8.52523517609,0,0,0,14.5011359405,4.2884058947,-2.30091325975,22.8,-0.00320326138317,0.00770559217685,0.00328702569582,-0.0200167316943,-0.0276342052966,0.0409059226513,0.0103771686554,0.413993120193,-0.948378324509
1586436529.93,-8.72166919708,26.6379241943,-68.4666366577,-4.30412864685,-1.3348698616,8.70607948303,0,0,0,14.6900361091,4.44131839136,-2.31026736214,22.78,-0.00318759883126,0.00770462708867,0.00329191660166,-0.0189423523843,-0.0334024466574,0.0482730492949,0.00807166099548,0.420329332352,-0.946130990982
1586436530.19,-8.80278396606,26.2648639679,-67.9228744507,-4.2585978508,-1.35557961464,8.72379112244,0,0,0,14.8046285698,4.53505556038,-2.31415441632,22.79,-0.00317375540217,0.0077029939445,0.00329546698584,-0.0413075089455,-0.031752884388,0.0462673641741,0.00479388237,0.427083969116,-0.939167022705
1586436530.44,-8.58014011383,26.0397815704,-67.1877822876,-4.36495399475,-1.20276868343,8.66963577271,0,0,0,14.9239067377,4.63444370501,-2.32381356016,22.8,-0.00318168263851,0.00771678305867,0.00328761651939,-0.0262916125357,-0.0332281030715,0.052697211504,0.00117945671082,0.429570913315,-0.948007583618
1586436530.7,-8.39998054504,25.7679195404,-66.5021896362,-4.24941682816,-1.19126355648,8.71776103973,0,0,0,15.0430839373,4.7343400373,-2.32948999346,22.79,-0.00317789416689,0.0077293914884,0.0032834262957,-0.0103831300512,-0.0217869877815,0.0589720904827,0.00135803222656,0.433940649033,-0.945527791977
1586436531.13,-8.23275947571,24.7245578766,-65.2691345215,-3.98914289474,-1.26072824001,9.01292896271,0,0,0,15.232724949,4.90753383815,-2.32368483913,22.78,-0.003158697116,0.00773205653561,0.00331359398319,-0.0533819124103,-0.0565737448633,-0.00556856300682,-0.00749921798706,0.439676761627,-0.942041397095
1586436531.39,-8.67770195007,24.4791088104,-65.3868637085,-3.92359948158,-1.2596296072,8.73889923096,0,0,0,15.3504166732,5.00312361895,-2.32515857729,22.79,-0.00313431491067,0.00774363440408,0.00329859709448,-0.037440661341,0.000108033418655,-0.0106483679265,-0.0170927047729,0.443681716919,-0.935859918594
1586436531.64,-9.1708688736,24.5212459564,-65.5360794067,-4.11534738541,-1.35847783089,8.75873756409,0,0,0,15.4662286123,5.10608750952,-2.332222762,22.79,-0.00314035010003,0.00775110569454,0.00328924839598,-0.0413790382445,0.0117100775242,0.00305548380129,-0.0156683921814,0.449786424637,-0.931253194809
1586436531.9,-9.22484016418,24.7491607666,-65.2027282715,-4.12328100204,-1.414041996,8.4498462677,0,0,0,15.5786825417,5.200289496,-2.3490116431,22.79,-0.00314190181923,0.00775037428205,0.0032319593514,-0.0074490904808,0.0130422413349,0.0563956834376,-0.00609278678894,0.455002784729,-0.928790330887
1586436532.33,-8.80046749115,25.8606700897,-63.9562454224,-4.22819042206,-1.40393078327,8.5730342865,0,0,0,15.7600700594,5.36780646079,-2.36153592172,22.78,-0.00313284886327,0.00774131036089,0.00320561602565,-0.00292956852354,0.0393129885197,0.0259615499526,0.0129849910736,0.461084365845,-0.927404642105
1586436532.59,-8.75851345062,26.6096363068,-63.7494888306,-4.35609817505,-1.39072418213,8.739153862,0,0,0,15.8720808629,5.47596489891,-2.36436343653,22.78,-0.0031261085772,0.00773291486128,0.00321586350151,-0.0257909279317,0.0779070034623,0.0316046178341,0.0272347927094,0.463454961777,-0.926671743393
1586436532.84,-9.20180511475,27.4064407349,-63.4835891724,-4.60114336014,-1.36429286003,8.51564407349,0,0,0,15.984577087,5.58464359102,-2.37922103656,22.79,-0.00313942291721,0.00773510115334,0.00320138825979,-0.0969141721725,0.0479362942278,0.0289238989353,0.0372886657715,0.471408128738,-0.919509649277
1586436533.11,-10.4745359421,27.6982975006,-63.3863334656,-4.58826351166,-1.6053725481,8.60057258606,0,0,0,16.0990411355,5.69775562469,-2.38986838518,22.79,-0.00314359675961,0.00773038994355,0.00321007519113,-0.132899001241,0.0051848590374,0.0179804861546,0.0459175109863,0.490149736404,-0.90971159935
1586436533.53,-12.2646436691,28.3774814606,-62.1478767395,-4.73270654678,-1.76818668842,8.32071113586,0,0,0,16.2837913782,5.87864884246,-2.42357314195,22.77,-0.00315424250478,0.00773799657377,0.0031901137636,0.00136867177207,0.0167615711689,0.0618495084345,0.0591037273407,0.531594514847,-0.884672880173
1586436533.78,-11.1826353073,28.852897644,-61.1975135803,-4.69647741318,-1.63638830185,8.46393299103,0,0,0,16.3961124069,5.99000330825,-2.43577773475,22.78,-0.003146880674,0.00774173366007,0.0031949710245,0.0638835206628,0.0444628298283,0.0877313315868,0.068332195282,0.52259516716,-0.886396169662
1586436534.04,-10.3063392639,29.4971218109,-60.3662223816,-4.73231315613,-1.46402406693,8.55392074585,0,0,0,16.5139665042,6.10681455866,-2.44059800014,22.78,-0.00312904604972,0.00775133766172,0.00322010048394,0.00208094716072,0.0421278215945,0.0574670732021,0.0828874111176,0.515204429626,-0.892137289047
1586436534.3,-10.2422294617,30.0436496735,-59.8966560364,-4.89326858521,-1.44837987423,8.33362388611,0,0,0,16.6279763938,6.22230692298,-2.45594561318,22.78,-0.00312470370641,0.00775940261159,0.00321526965799,-0.0299200378358,0.0388719141483,0.0500805713236,0.0916473865509,0.522596597672,-0.896739959717
1586436534.73,-8.0724401474,31.446559906,-57.1250038147,-5.19272994995,-1.20971107483,8.22057056427,0,0,0,16.7978929785,6.42290640335,-2.47754412752,22.77,-0.00313696363101,0.00775240792766,0.00320265982153,-0.0247329492122,0.024155523628,0.0557608939707,0.1284968853,0.510557413101,-0.891914606094
1586436534.99,-8.21287155151,31.8085021973,-56.6869544983,-5.18915748596,-1.28643977642,8.24675559998,0,0,0,16.8964074797,6.54383583496,-2.48817884157,22.78,-0.00313983788978,0.00773678973024,0.00320028548259,-0.0584125630558,0.0259913560003,0.0189684331417,0.137217998505,0.515117645264,-0.885746002197
1586436535.24,-9.33986759186,32.1860923767,-56.8687515259,-5.38017082214,-1.38483834267,8.39558124542,0,0,0,17.000419998,6.6798520367,-2.49626300839,22.78,-0.0031663919788,0.00773012081231,0.00323440213731,-0.112526126206,0.046955794096,-0.0181883592159,0.141282558441,0.530195236206,-0.879249811172
1586436535.5,-10.3528938293,32.5505714417,-57.2392807007,-5.26827859879,-1.58370029926,8.38700389862,0,0,0,17.1091126593,6.81161884859,-2.50001418347,22.79,-0.00316451729637,0.00771542932721,0.00327684083269,-0.0363796986639,0.0244505740702,-0.0112235546112,0.145303010941,0.541387319565,-0.866727590561
1586436535.93,-9.35155487061,32.3041915894,-56.6683654785,-5.17397975922,-1.23433017731,8.03605175018,0,0,0,17.28972542,7.00751206592,-2.52961159118,22.77,-0.00315068060542,0.00773140657732,0.00325047429683,-0.00350773404352,-0.014533104375,0.028371071443,0.144607305527,0.531578063965,-0.87805056572
1586436536.18,-9.64873504639,32.1704025269,-56.4742431641,-5.24252748489,-1.40225481987,8.30585765839,0,0,0,17.396852136,7.13590485955,-2.53798211603,22.78,-0.00315337320596,0.00772913375857,0.00327037507255,-0.0698581412435,-0.0203177332878,0.021854788065,0.143454790115,0.53853726387,-0.872567892075
1586436536.44,-9.613322258,32.007522583,-55.7766342163,-5.09967708588,-1.31701004505,7.9768447876,0,0,0,17.5041168016,7.2488784985,-2.56161801041,22.78,-0.00313401740751,0.00773872253179,0.00322946099449,0.00630393624306,-0.0191748160869,0.0941000729799,0.143908023834,0.543460607529,-0.867965936661
1586436536.7,-9.09256649017,32.13904953,-54.680103302,-5.32319021225,-1.18688321114,8.3668794632,0,0,0,17.6175568972,7.39107674526,-2.56865295258,22.78,-0.00315128054101,0.00775737555955,0.00325825193008,-0.0645905807614,0.00283494614996,0.0504873692989,0.150805950165,0.542984008789,-0.867539644241
1586436537.13,-12.6730451584,31.2424221039,-53.7589378357,-5.0437078476,-1.76520800591,8.172747612,0,0,0,17.7935268912,7.60483449927,-2.59783866118,22.76,-0.00314191115731,0.00776826317025,0.0032554891611,-0.108234584332,-0.0187292713672,0.035098195076,0.139149427414,0.599578857422,-0.829187631607
1586436537.39,-13.7745447159,31.059835434,-53.4067687988,-4.92440080643,-2.01480531693,8.00066566467,0,0,0,17.8935055931,7.71996844855,-2.62285717362,22.78,-0.00311606516367,0.00776497500352,0.00322496670147,-0.127720847726,-0.0197559613734,0.013729184866,0.138727903366,0.616396903992,-0.817707061768
1586436537.64,-14.9336214066,30.9238739014,-53.0111236572,-4.94300031662,-2.09957885742,7.89016485214,0,0,0,17.9947954737,7.83534919565,-2.65721459792,22.78,-0.00309663096647,0.00777427506376,0.00318028210837,-0.108508765697,-0.0238761324435,0.0464327633381,0.138712882996,0.637582302094,-0.801070451736
1586436537.91,-15.598818779,31.1033191681,-52.22473526,-5.07621908188,-2.3170235157,8.27136325836,0,0,0,18.0997877752,7.97906647516,-2.67000646096,22.78,-0.0030977658174,0.0077646748642,0.00321173781681,-0.0966206267476,0.0101663153619,0.0710047781467,0.144595146179,0.648931980133,-0.78738117218
1586436538.33,-18.3939723969,31.1667041779,-50.1492919922,-4.99123620987,-2.75812959671,8.09280872345,0,0,0,18.2574512325,8.19859475407,-2.70481940934,22.76,-0.00308173004195,0.00774703659313,0.00323336410724,-0.0835627317429,-0.00607520388439,0.054594129324,0.15384721756,0.697475671768,-0.738926649094
1586436538.59,-18.2059822083,31.5987033844,-49.2964630127,-5.10274600983,-2.54022121429,7.95320129395,0,0,0,18.3604880082,8.33625143064,-2.73238069442,22.77,-0.00307349700218,0.00775762205964,0.0032353672244,-0.00782311055809,0.034537166357,0.0933267176151,0.164372205734,0.701131343842,-0.735806941986
1586436538.85,-18.0928668976,32.2284088135,-48.4859352112,-5.3467540741,-2.52819776535,7.78244447708,0,0,0,18.4515165131,8.47814238974,-2.77064991333,22.78,-0.00309360444852,0.00776335489141,0.00321490402973,-0.0778943300247,0.0303097050637,0.0504113733768,0.177030086517,0.702714681625,-0.72395157814
1586436539.11,-19.626493454,32.6063575745,-48.5120735168,-5.21387386322,-2.59593439102,7.79217100143,0,0,0,18.5638245544,8.61813465303,-2.80527053121,22.77,-0.00307815030829,0.0077920512146,0.00321601945069,-0.201527819037,0.0453688241541,-0.0159293413162,0.18177652359,0.722712993622,-0.710177898407
1586436539.53,-29.0781707764,33.6068382263,-51.2695121765,-5.54531812668,-3.94918203354,7.20484018326,0,0,0,18.7298329119,8.83435045993,-2.89909847485,22.76,-0.00309888737793,0.00779425248282,0.00322709106318,-0.221002101898,0.0456936694682,-0.0459551811218,0.170132160187,0.811480283737,-0.597635269165
1586436539.79,-31.2198009491,33.7667617798,-51.8101463318,-5.48666715622,-4.30460977554,6.97442579269,0,0,0,18.826074823,8.95775717957,-2.96194458856,22.77,-0.00310479477449,0.00778021086375,0.00322563894481,-0.102864213288,0.0103332111612,-0.00899136066437,0.169521331787,0.830873250961,-0.569773674011
1586436540.04,-31.8535232544,33.6726150513,-51.9368362427,-5.45305967331,-4.3966794014,6.95922660828,0,0,0,18.9241920656,9.08099941654,-3.02429191507,22.78,-0.00310696927052,0.00776461011776,0.00322871750682,-0.032947961241,-0.00928342342377,-0.0158622879535,0.16811132431,0.837238788605,-0.561617851257
1586436540.31,-32.0730171204,33.4543075562,-51.9863319397,-5.43679428101,-4.42871236801,6.94287109375,0,0,0,19.0231990344,9.20654322711,-3.08934375824,22.78,-0.00311193670675,0.00774970214682,0.00322857091558,-0.0167682785541,-0.0191792882979,-0.000758469221182,0.163699388504,0.841731071472,-0.557815551758
1586436540.73,-31.4889411926,32.5722999573,-51.2781867981,-5.25270175934,-4.27166891098,7.00649452209,0,0,0,19.1960478001,9.41185438641,-3.19665552954,22.76,-0.00310515634385,0.00775648775019,0.00321932736261,-0.000314414530294,-0.0668465942144,0.029835851863,0.154427528381,0.837663888931,-0.563505649567
1586436540.99,-30.7989120483,31.9282665253,-50.3635520935,-5.21349525452,-4.28538513184,7.28045797348,0,0,0,19.2999012128,9.54937364462,-3.24797579153,22.77,-0.00310931036024,0.00775214886464,0.00324271942183,0.0190399624407,-0.0913858637214,0.0391222648323,0.15092086792,0.836839914322,-0.567934989929
1586436541.25,-29.5547485352,31.2142410278,-49.3059654236,-5.06266593933,-4.09488344193,7.29372501373,0,0,0,19.4018331485,9.68081959681,-3.30429376397,22.78,-0.0031039810544,0.00775859810507,0.00324081244296,0.082940608263,-0.0873372033238,0.0428088009357,0.147092580795,0.827325105667,-0.582648992538
1586436541.51,-27.928691864,30.3219566345,-48.3781471252,-4.97715520859,-3.92131876945,7.52430868149,0,0,0,19.505147315,9.82674348388,-3.35433899609,22.77,-0.0031075537471,0.00776526236855,0.00324800441074,0.0893451347947,-0.118044041097,0.0124402362853,0.141415834427,0.814959764481,-0.603203296661
1586436541.93,-23.1039047241,27.2883434296,-46.6005058289,-4.54612970352,-3.4941701889,7.88641548157,0,0,0,19.6416412568,10.0620950722,-3.4171236345,22.76,-0.00311640697057,0.00775067975889,0.00322060379499,0.17821867764,-0.0606209114194,0.0262834187597,0.116177797318,0.768378257751,-0.665462255478
1586436542.18,-20.3661422729,27.1708660126,-45.9779853821,-4.35494422913,-3.0864481926,8.01382637024,0,0,0,19.7252209977,10.1907444542,-3.45130731021,22.77,-0.0030911124806,0.00774097019062,0.00318614702558,0.208472460508,-0.0170111656189,0.0521503426135,0.119199514389,0.742667675018,-0.696630954742
1586436542.44,-18.2977218628,27.2345752716,-45.524974823,-4.49100971222,-2.81052732468,8.33219909668,0,0,0,19.81094383,10.3428770219,-3.46533450102,22.78,-0.00309093731976,0.00772754200961,0.00319443297861,0.103913992643,0.00184103858192,0.023690611124,0.126621484756,0.721139669418,-0.722933530807
1586436542.7,-17.6135692596,27.1100025177,-45.2698326111,-4.43951034546,-2.752815485,8.20345687866,0,0,0,19.8887232034,10.4868009215,-3.4893138433,22.77,-0.0030844034574,0.0077067582493,0.00316911017844,-0.00588297890499,-0.0292345918715,0.0163473188877,0.125831842422,0.711817979813,-0.728426218033
1586436543.13,-17.4539432526,27.3718452454,-43.9136428833,-4.66871261597,-2.63695597649,8.31584739685,0,0,0,20.0257501449,10.7619467556,-3.51988565286,22.75,-0.00311517127051,0.00770051103375,0.00316884423286,-0.0314816869795,0.00684931967407,0.0398419834673,0.13880443573,0.715187072754,-0.729942083359
1586436543.38,-17.7126102448,27.5291080475,-43.6138267517,-4.65937852859,-2.61671257019,7.8998966217,0,0,0,20.0904527385,10.9098332397,-3.57378489241,22.77,-0.00313874123803,0.00770214163782,0.00309078353408,-0.0623911619186,0.0147722670808,0.0118918707594,0.142154693604,0.721965074539,-0.719927310944
1586436543.64,-17.8526554108,27.8107242584,-43.3829841614,-4.61779212952,-2.55832195282,8.12695407867,0,0,0,20.1771318488,11.0676957533,-3.60803175671,22.77,-0.00314529551152,0.00771815965379,0.00306360530941,0.0217609126121,0.0302977859974,0.0612594224513,0.148729085922,0.723578453064,-0.711625337601
1586436543.9,-16.6616802216,28.7510223389,-42.6696624756,-4.78186655045,-2.37875199318,8.29857254028,0,0,0,20.2694468616,11.2385847436,-3.62348742797,22.77,-0.00315659306314,0.00773239895054,0.00307456638124,0.0714980140328,0.062900044024,0.0771917551756,0.16645860672,0.715396165848,-0.719274520874
1586436544.33,-14.1126441956,29.9714927673,-40.5365600586,-4.8802690506,-2.17241859436,8.3102388382,0,0,0,20.3992431898,11.5082380924,-3.6281888323,22.76,-0.00315203323023,0.00771356770301,0.0030865972568,0.113805405796,0.021988902241,0.101605825126,0.198588609695,0.694865703583,-0.730325460434
1586436544.59,-12.1258516312,30.6955299377,-39.6171112061,-4.96545267105,-1.81688332558,8.27489948273,0,0,0,20.4782461218,11.6696267396,-3.62630023262,22.77,-0.00314266542623,0.00770457009848,0.00309059363193,0.12323037535,0.050077598542,0.0719837844372,0.216373920441,0.674182415009,-0.746472358704
1586436544.85,-10.3730516434,31.0395965576,-38.893863678,-5.03085184097,-1.56811153889,8.437292099,0,0,0,20.5608119569,11.8390887712,-3.60567074723,22.77,-0.00313647295159,0.007694330474,0.00312337753847,0.0923804938793,-0.0103831300512,0.0510133802891,0.228946208954,0.655744552612,-0.760362148285
1586436545.11,-9.31018829346,31.0973052979,-38.3753356934,-4.94599866867,-1.39816236496,8.28995418549,0,0,0,20.6419259149,11.9955855928,-3.59532360969,22.77,-0.00311090843109,0.00768658912875,0.00312180822713,0.0463522970676,0.0191800314933,0.0376589633524,0.236979484558,0.6390376091,-0.768738031387
1586436545.53,-5.37682771683,32.8414344788,-37.1688766479,-5.46154069901,-0.680582106113,8.2948551178,0,0,0,20.7701122107,12.2895155031,-3.56396607579,22.76,-0.00313863814818,0.00770168358362,0.00313928283373,0.145000964403,0.00512525578961,0.0440053641796,0.26645898819,0.599847078323,-0.799887895584
1586436545.78,-3.57837939262,33.0132064819,-36.707359314,-5.29579877853,-0.479526996613,8.2678604126,0,0,0,20.8535915071,12.4563418116,-3.53524295866,22.77,-0.00312727969073,0.00770707825295,0.00314993156764,0.103684514761,0.0234596449882,0.0311382170767,0.273794174194,0.576530456543,-0.810143470764
1586436546.04,-2.5783803463,33.6722412109,-36.4284858704,-5.47566175461,-0.374671936035,8.16440391541,0,0,0,20.9256893952,12.6277292418,-3.50876166961,22.77,-0.00313385839668,0.00770415436336,0.00315032111799,0.0225015003234,0.0747941434383,0.0223927218467,0.284161329269,0.563264846802,-0.812676906586
1586436546.3,-3.0396001339,34.3847618103,-36.3657722473,-5.45483779907,-0.251096487045,7.87677335739,0,0,0,21.0119257329,12.7860056976,-3.51039817029,22.77,-0.00311381447896,0.00773527536538,0.00310661479369,-0.126510873437,0.041710589081,0.00130012631416,0.293250083923,0.569489955902,-0.805495262146
1586436546.73,-8.1505241394,36.996673584,-35.6312904358,-5.94084692001,-1.18828749657,7.85711860657,0,0,0,21.1332660262,13.0769933597,-3.48746667563,22.76,-0.00312108835409,0.00771968502775,0.00312613318214,-0.128620877862,0.0153757650405,0.0763885751367,0.325848340988,0.641246795654,-0.731666564941
1586436546.99,-8.73707008362,37.1995773315,-34.6089134216,-5.927983284,-1.22552108765,7.84827327728,0,0,0,21.2110218295,13.2563129879,-3.46696732126,22.77,-0.00311962711569,0.00771168572668,0.00315081683304,-0.116194799542,-0.0102251768112,0.0780992284417,0.336056470871,0.654027223587,-0.711929321289
1586436547.25,-8.9283914566,37.0922889709,-33.4244346619,-5.78222942352,-1.18749594688,7.74418258667,0,0,0,21.2926579871,13.4163431887,-3.45737564283,22.78,-0.00308997514551,0.00771620922681,0.00315238703733,-0.0753238871694,-0.0344857499003,0.0906698480248,0.341356277466,0.661021471024,-0.70660161972
1586436547.51,-8.84138774872,36.8934440613,-32.2299194336,-5.73849534988,-1.21748280525,7.80901145935,0,0,0,21.3739143826,13.5818081521,-3.43891499276,22.77,-0.00305698267542,0.00771374456886,0.00316279238438,-0.0472247637808,-0.0177681446075,0.0743605196476,0.347896814346,0.660985708237,-0.697696685791
1586436547.93,-6.45756101608,34.087097168,-29.7559204102,-5.590239048,-0.981349408627,8.53148174286,0,0,0,21.4899868649,13.9069256696,-3.34593546953,22.76,-0.00307637151092,0.00770106173924,0.00325873347313,0.153281539679,-0.360482960939,0.0292338430882,0.333251953125,0.645702838898,-0.727168321609
1586436548.19,-4.57914686203,29.7276744843,-29.3024787903,-4.76529455185,-0.65806221962,8.15880870819,0,0,0,21.5322125641,14.0545769516,-3.34675319991,22.77,-0.00305362222903,0.00770286972887,0.00318621882116,0.0655748024583,-0.313472747803,-0.0424295663834,0.283447504044,0.620807170868,-0.769996166229
1586436548.44,-4.84605169296,27.4550189972,-30.1381797791,-4.3815574646,-0.679937303066,8.6168050766,0,0,0,21.5996906736,14.2164986217,-3.31801488496,22.78,-0.00302184305946,0.00771260354668,0.00317263006806,-0.0307545084506,-0.102666020393,-0.0758320167661,0.247598171234,0.61773109436,-0.787407875061
1586436548.71,-5.37757492065,26.3788852692,-30.7216415405,-4.42270708084,-0.970925033092,8.72797489166,0,0,0,21.637129723,14.3986817318,-3.27935452521,22.78,-0.00303545871604,0.00768236825238,0.00316582308074,-0.0250756777823,-0.0848785191774,-0.0444099418819,0.226316690445,0.622933626175,-0.788355350494
1586436549.13,-7.01103544235,19.8231182098,-31.5473079681,-3.19474005699,-1.16409134865,8.80963611603,0,0,0,21.7066652214,14.6602070369,-3.25998918535,22.76,-0.0030057349334,0.0076727606148,0.00308823594247,0.0214345753193,-0.260460406542,0.0139184314758,0.136199951172,0.638952493668,-0.795953989029
1586436549.38,-6.71977090836,17.8655872345,-31.2500629425,-2.80930185318,-1.1271892786,9.29330348969,0,0,0,21.7691791377,14.815697658,-3.21773928221,22.77,-0.00296138091979,0.00766578951018,0.00309082456953,-0.00266879796982,-0.148276984692,0.00968650076538,0.110141515732,0.634471416473,-0.802079916
1586436549.64,-6.76068544388,16.5164451599,-30.9593048096,-2.48290777206,-1.10220849514,9.13959693909,0,0,0,21.8275930041,14.9509413886,-3.20165083328,22.78,-0.00289339887392,0.00766611075046,0.00304546243603,0.000137835755595,-0.0517278909683,0.0456802584231,0.0929358005524,0.630783557892,-0.807720661163
1586436549.9,-6.16567564011,16.6430053711,-30.0028152466,-2.6808116436,-0.99794203043,9.45479011536,0,0,0,21.8930110219,15.1253107229,-3.14680125656,22.77,-0.00286431949799,0.00766815999355,0.00306790937614,0.000344961881638,0.0263355690986,0.0887133255601,0.101665258408,0.631597995758,-0.810970306396
1586436550.33,-8.83122348785,17.7583732605,-29.2807273865,-3.04224443436,-1.38311004639,9.11696815491,0,0,0,21.9631612032,15.4371601906,-3.10943650307,22.75,-0.00287416018079,0.00767608103749,0.00304137388835,-0.109857320786,0.0180460494012,0.0256605446339,0.119755506516,0.668464422226,-0.774793148041
1586436550.59,-9.88768196106,17.9816570282,-28.9722652435,-3.04817819595,-1.51017248631,9.23666095734,0,0,0,22.0200793326,15.635037041,-3.07881195196,22.77,-0.0028771835718,0.00769306331003,0.00305008444194,-0.0981167033315,0.00259652733803,0.0400535687804,0.124609470367,0.685152053833,-0.75660777092
1586436550.84,-10.3109292984,18.1291942596,-28.4493045807,-3.01962971687,-1.70333790779,9.27598762512,0,0,0,22.0703807973,15.8215070678,-3.03593326581,22.77,-0.00286927382843,0.00768541852877,0.00307127286951,0.00065490603447,-0.00314414524473,0.0700809061527,0.131947755814,0.690691947937,-0.751628160477
1586436551.11,-9.28758525848,18.1839790344,-27.3464565277,-3.01846814156,-1.63199329376,9.21018314362,0,0,0,22.1027540411,16.0008820929,-2.99536862884,22.77,-0.00285952927843,0.00765874193792,0.00307182449188,0.0941745862365,-0.0187829155475,0.0925831496716,0.141758441925,0.686177968979,-0.759904384613
1586436551.53,-7.88430452347,17.2175140381,-26.0485019684,-2.81744980812,-1.32681274414,9.13232898712,0,0,0,22.1546226485,16.2899790275,-2.94875196281,22.76,-0.00283935772717,0.00764872612043,0.00303655179145,4.39584291598e-05,-0.0257059931755,0.0216640550643,0.143413066864,0.664475917816,-0.763110876083
1586436551.79,-7.20648479462,17.2621421814,-25.4199733734,-2.74804973602,-1.19536364079,9.21078205109,0,0,0,22.1949260018,16.4501044594,-2.91776735462,22.76,-0.00280179466047,0.00764370013463,0.00301605904583,0.0570513382554,0.0345341861248,0.0892676636577,0.146753787994,0.65996670723,-0.776026725769
1586436552.04,-6.38522815704,18.3344707489,-24.5436153412,-3.04914736748,-0.949234247208,8.90062618256,0,0,0,22.2139818501,16.6176148494,-2.92678775556,22.77,-0.00279183742063,0.00765832736848,0.00293533308979,-0.00383704970591,0.113659352064,0.0745050683618,0.169108867645,0.651581764221,-0.775408744812
1586436552.3,-6.39522361755,19.5209102631,-23.9810886383,-3.40373253822,-1.06618177891,9.06611919403,0,0,0,22.2221984331,16.8182770184,-2.89762865083,22.77,-0.0028195130419,0.00764820974838,0.00290611039406,-0.0409022010863,0.120122000575,0.0419862568378,0.189968109131,0.655615568161,-0.771698236465
1586436552.73,-7.25162553787,22.9929180145,-24.6291027069,-3.84800815582,-1.15860402584,8.95523166656,0,0,0,22.28241915,17.1342474015,-2.83425677508,22.75,-0.0028223112065,0.00764278951325,0.00290379225567,0.016725808382,0.0281967241317,-0.00268071889877,0.229793787003,0.666128635406,-0.750653505325
1586436552.98,-7.36833238602,23.4436340332,-24.7063694,-3.77271986008,-1.13284659386,8.78286552429,0,0,0,22.3251906961,17.298116774,-2.81992498143,22.77,-0.00279129931934,0.00764577248683,0.00286965885409,-0.0454053245485,0.0697232782841,0.0095777194947,0.23300075531,0.668586015701,-0.748443365097
1586436553.24,-8.01389026642,24.3592453003,-24.6861820221,-3.82206726074,-1.29828822613,8.57948207855,0,0,0,22.3603324855,17.4384248654,-2.82439496242,22.77,-0.00273892636887,0.00763346685981,0.00280603232426,-0.0836089253426,0.0775151029229,0.0101499259472,0.245242595673,0.678858995438,-0.733800649643
1586436553.5,-8.74592876434,25.684923172,-24.850315094,-4.27488183975,-1.39834010601,8.524061203,0,0,0,22.3779351329,17.621460874,-2.82333880818,22.76,-0.00274334020577,0.00761968684767,0.00275531209247,-0.0376209616661,0.152782350779,0.0133879492059,0.260979652405,0.68944978714,-0.719498872757
1586436553.93,-10.177728653,27.9379768372,-25.9328079224,-4.59984397888,-1.50851809978,8.63974666595,0,0,0,22.4683438604,17.94654892,-2.77236897978,22.75,-0.00274313028715,0.00762348709303,0.00277920758291,-0.0724256038666,-0.0076189651154,-0.0294804573059,0.277535200119,0.702247142792,-0.698856830597
1586436554.19,-11.2169818878,27.8697910309,-26.2838993073,-4.63343954086,-1.71616864204,8.72464752197,0,0,0,22.5277207869,18.1593603457,-2.71896109038,22.76,-0.00275350870937,0.00761664725136,0.00282812974669,-0.0946000218391,0.0117845833302,-0.0180855412036,0.274710655212,0.713924884796,-0.687291145325
1586436554.44,-12.7980899811,27.5578594208,-26.5460910797,-4.71623897552,-1.91687703133,8.61390590668,0,0,0,22.5706737875,18.3876347417,-2.68475461039,22.77,-0.00279395322324,0.00761687116719,0.00285769284708,-0.153255477548,-0.0468268990517,-0.00651627825573,0.266403198242,0.728348970413,-0.670844316483
1586436554.7,-14.866686821,26.1557807922,-26.5074138641,-4.4929857254,-2.28866267204,8.86778354645,0,0,0,22.6280489256,18.6292677098,-2.61785204692,22.75,-0.00283279483113,0.00760996117182,0.0029392954106,-0.222811102867,-0.214721277356,-0.0536769740283,0.248474359512,0.75389289856,-0.649063587189
1586436555.13,-23.1312484741,17.8273944855,-26.3475437164,-2.91138243675,-3.70122265816,8.37569141388,0,0,0,22.681109708,18.9302609582,-2.67538528903,22.75,-0.00281020809851,0.00760127573248,0.00288770489058,-0.150994971395,-0.0934615731239,-0.0094994911924,0.13307929039,0.837968587875,-0.56796836853
1586436555.38,-24.1773643494,17.2300548553,-25.976606369,-2.83566403389,-3.89206552505,8.50485420227,0,0,0,22.7156148211,19.1097566863,-2.69810052025,22.76,-0.00279299249522,0.00758854049104,0.00287575725496,-0.0785186737776,-0.0319093503058,0.0167153794318,0.124651908875,0.849084377289,-0.549785375595
1586436555.64,-24.7886352539,17.0377178192,-25.778011322,-2.78510189056,-3.96600747108,8.34261131287,0,0,0,22.7433422358,19.2827082178,-2.74614004167,22.76,-0.00277099321569,0.00757980120244,0.00283331588344,-0.0711664408445,-0.0310316700488,-0.000511109828949,0.125227928162,0.853986501694,-0.54144859314
1586436555.9,-25.3290977478,16.5861549377,-25.7465496063,-2.78478717804,-4.08105039597,8.52983856201,0,0,0,22.7772864429,19.4796682749,-2.76010589217,22.75,-0.00276675071118,0.00756614731256,0.00283904376133,-0.0522628426552,-0.040166079998,-0.0201925653964,0.118144750595,0.859820842743,-0.530940532684
1586436556.33,-26.2321605682,16.6934223175,-24.5606555939,-2.78955554962,-4.08078718185,8.46014308929,0,0,0,22.8473457915,19.8182385917,-2.79945592706,22.75,-0.00275868837906,0.00758085670027,0.00284528466929,-0.0451654270291,-0.00830590818077,0.0766970217228,0.125174283981,0.872339725494,-0.514040708542
1586436556.59,-26.049495697,16.9489498138,-23.6081829071,-2.8413541317,-4.01162147522,8.30526351929,0,0,0,22.8821259455,20.0194384353,-2.85145907707,22.76,-0.0027526485608,0.00760279157117,0.00281431266388,0.019038470462,0.00336542795412,0.100047156215,0.135480642319,0.870522022247,-0.512822628021
1586436556.84,-25.9276390076,17.5154781342,-23.0680103302,-3.00440120697,-4.02120113373,8.60085010529,0,0,0,22.9305482856,20.2483558255,-2.84517030458,22.76,-0.00276399055352,0.00761710923712,0.00285796587995,-0.0235363859683,0.0357292592525,0.0533603169024,0.150148153305,0.870184898376,-0.510880708694
1586436557.11,-26.0791244507,18.1335926056,-22.5367088318,-3.17978405952,-4.07186889648,8.26330375671,0,0,0,22.9357707162,20.4691422023,-2.88907661568,22.76,-0.00279331010219,0.00762039903997,0.00283019885003,-0.0298410672694,0.0125326216221,0.0818409025669,0.163900852203,0.8713285923,-0.50000667572
1586436557.53,-25.3333740234,19.0072288513,-19.2691268921,-3.20158219337,-4.14248275757,8.42760276794,25.3863,21.124,3.77760758394,24.3965949703,20.9759671441,-3.27450496792,22.75,-0.0023263083597,0.0082749325241,0.00289695802249,-0.0263184309006,0.0366263128817,0.0891543924809,0.199004650116,0.868968248367,-0.494112730026
1586436557.79,-25.6363677979,19.4459037781,-18.5729255676,-3.20700550079,-3.96669387817,8.3316822052,0,0,0,24.4290242244,21.1871612012,-3.30055904318,22.76,-0.00231542679555,0.00827987257907,0.0028944791806,-0.0679418519139,-0.000955164432526,0.0659011304379,0.210564851761,0.87432050705,-0.486747503281
1586436558.05,-26.2471542358,19.5381755829,-17.9438591003,-3.28909754753,-4.03015375137,8.40927028656,0,0,0,24.4612152991,21.4103580342,-3.31978817286,22.76,-0.00231620196479,0.00828848204295,0.00291328071145,-0.0863343477249,-0.0256076473743,0.0528551638126,0.218531847,0.877060413361,-0.467764377594
1586436558.31,-26.7019863129,19.656457901,-17.2299308777,-3.28074479103,-4.03565168381,8.20837879181,0,0,0,24.4913842673,21.6350889507,-3.35546694848,22.76,-0.00231209968804,0.00830702578577,0.00290445121473,-0.0386253036559,-0.0136494645849,0.0806950032711,0.227259159088,0.88107419014,-0.461571931839
1586436558.73,-25.1539459229,19.9610729218,-14.4961938858,-3.33422636986,-3.88085246086,8.28597068787,15.4029,-10.7611,3.81130083101,20.7898197484,9.5082251463,-4.37788102938,22.75,0.00190121011007,0.00327282020844,0.000341835780928,-0.0114843258634,-0.032901763916,0.0520788170397,0.253380537033,0.870907306671,-0.468640327454
1586436558.98,-25.2749938965,19.9532814026,-13.9110336304,-3.28080797195,-3.97903013229,8.30762195587,0,0,0,20.8348473632,9.61234801117,-4.4157173415,22.76,0.00191154780817,0.00326610118755,0.000336525035938,-0.0377148427069,-0.022271277383,0.0442527234554,0.257224321365,0.86681842804,-0.461844921112
1586436559.24,-25.3338890076,19.9307746887,-13.2649049759,-3.43859410286,-4.03396129608,8.41872215271,0,0,0,20.8737017298,9.72578609829,-4.44667693548,22.76,0.00189658550558,0.00325219333281,0.000348736097014,-0.00749826477841,-0.0333070755005,0.0555552579463,0.264510154724,0.872349262238,-0.456336259842
1586436559.5,-24.9753684998,19.8915729523,-12.4667882919,-3.38689088821,-3.98432302475,8.39888477325,0,0,0,20.9123994763,9.83887167041,-4.47936181104,22.76,0.00188871351473,0.00323798198602,0.000353812678014,0.00781640410423,-0.0294894035906,0.0633589997888,0.271341085434,0.86697435379,-0.459425210953
1586436559.93,-23.8340148926,19.7277202606,-10.1749753952,-3.49030637741,-3.65909814835,8.38414382935,0,0,0,20.9704353856,10.04115713,-4.54086610453,22.74,0.00186019758118,0.00324899517232,0.000343491568226,0.0114984819666,-0.054743885994,0.0552065707743,0.29305434227,0.864083051682,-0.468137979507
1586436560.19,-23.4274406433,19.2451915741,-9.31077480316,-3.28604722023,-3.6622710228,8.63930416107,25.461,21.038,3.86778656876,22.3630573523,13.3542908634,-4.18744981899,22.76,0.00100985192709,0.00470125286417,0.00117134950893,0.0078655788675,-0.0657856464386,0.058307506144,0.294788837433,0.853897571564,-0.473976612091
1586436560.44,-22.7114562988,19.0222072601,-8.2458524704,-3.18351006508,-3.5243370533,8.54763889313,0,0,0,22.3932353111,13.5011260405,-4.21200875983,22.76,0.00101200623352,0.00470918884629,0.00116963445613,0.0352792479098,-0.0356778502464,0.0867493525147,0.299897193909,0.850033283234,-0.479895591736
1586436560.7,-21.8959980011,19.1457881927,-7.31938123703,-3.29516124725,-3.38158607483,8.5537853241,0,0,0,22.4190601929,13.6555213955,-4.23627146293,22.76,0.00100042344437,0.00471975203065,0.00116239323537,0.0261224843562,-0.0100985169411,0.0624261908233,0.310061454773,0.842295408249,-0.491203546524
1586436561.13,-20.5011138916,18.793088913,-5.76102590561,-3.19839000702,-3.3158082962,8.84527015686,0,0,0,22.4557115698,13.9024576928,-4.25464828081,22.75,0.000994619078895,0.00470983318163,0.00118354733697,0.0270910561085,-0.0390693582594,0.0530622899532,0.32178235054,0.827583789825,-0.502112865448
1586436561.38,-19.9451389313,18.6751918793,-4.98351097107,-3.14951992035,-3.27310109138,8.77223014832,0,0,0,22.4740618147,14.0492191031,-4.2642673055,22.76,0.000993328736696,0.00469365315119,0.00118810556907,0.00760480761528,-0.0224068760872,0.0671528354287,0.328858137131,0.823895931244,-0.507923841476
1586436561.64,-19.5850009918,18.639667511,-4.14289474487,-3.07969260216,-3.10359930992,8.78031539917,0,0,0,22.4957512016,14.1998564492,-4.27596165508,22.76,0.00100191294901,0.00469506999824,0.00119081750809,-0.0211522039026,-0.0310272015631,0.0652574077249,0.334908723831,0.820616722107,-0.50848865509
1586436561.91,-19.6300697327,18.5967750549,-3.32981324196,-3.13845086098,-3.09997081757,8.8164730072,16.2352,-9.4566,3.9242723065,20.9593964411,8.58330983788,-4.44925437281,22.73,0.00271137667376,0.00196491961896,9.45385498631e-05,-0.0572681538761,-0.0251874364913,0.0690884888172,0.342094898224,0.818000555038,-0.510613441467
1586436562.33,-20.0639038086,18.3793315887,-0.739313006401,-3.065284729,-3.111774683,8.66407299042,0,0,0,21.014383803,8.75813571096,-4.49332426349,22.75,0.00271535842258,0.00197684297278,8.23845280116e-05,-0.0202015042305,-0.040823224932,0.0779964029789,0.361127614975,0.821796417236,-0.498481035233
1586436562.59,-20.0745601654,18.305480957,0.148991078138,-3.01373267174,-3.18477606773,8.60384559631,0,0,0,21.0462420069,8.86253859659,-4.52286289573,22.75,0.00272521526845,0.00197819728144,6.06408435732e-05,-0.057670481503,-0.0242337640375,0.0628046765924,0.368329763412,0.820739507675,-0.491089582443
1586436562.85,-20.8101081848,18.2180690765,0.757544636726,-3.06459546089,-3.35195183754,8.54259395599,0,0,0,21.0737700224,8.96670110126,-4.55336033054,22.76,0.0027253535282,0.00197142752551,3.51442743362e-05,-0.111885383725,-0.0333413518965,0.0378735363483,0.373026132584,0.820506095886,-0.478557109833
1586436563.1,-21.9370708466,18.0992584229,1.26019310951,-3.16874241829,-3.58109760284,8.76316833496,0,0,0,21.099046161,9.07616827261,-4.5745397437,22.76,0.00270685996917,0.00195683595128,5.13002771278e-05,-0.107353933156,-0.0278398413211,0.0406853854656,0.374066829681,0.830837726593,-0.460848093033
1586436563.53,-23.5055503845,18.0251998901,3.327886343,-3.16371107101,-3.78019022942,8.68176078796,24.9857,20.7337,3.95499262001,21.9597454937,11.6566579322,-4.37272432831,22.74,0.00213194221232,0.00319496171823,0.000685916993568,0.00328123569489,-0.0637382343411,0.0673145055771,0.389757394791,0.840742826462,-0.431078195572
1586436563.78,-23.6828327179,17.113615036,4.30592823029,-2.81357455254,-3.77536892891,8.6752986908,0,0,0,21.9784760052,11.7840653166,-4.39347819791,22.76,0.00214253803263,0.00319365445055,0.000698279398328,-0.086820140481,-0.121182218194,0.0356160141528,0.386117696762,0.837704181671,-0.433820486069
1586436564.04,-24.3169994354,16.0626335144,5.18798112869,-2.79085254669,-3.82868099213,8.49980449677,0,0,0,21.990174801,11.9150855773,-4.4211740404,22.77,0.00213113563225,0.00320095783597,0.000684533460847,-0.0803828313947,-0.0951677560806,0.0414989851415,0.382054328918,0.845501422882,-0.429078102112
1586436564.3,-24.8457584381,15.5308465958,5.96650743484,-2.5662548542,-3.94976735115,8.48770427704,0,0,0,22.0036167714,12.046272596,-4.45025156611,22.76,0.0021399716006,0.0032036834674,0.000670832315848,-0.0746935606003,-0.0558614768088,0.0416629053652,0.384682893753,0.846256017685,-0.425762414932
1586436564.73,-26.3308734894,14.6969156265,8.13567733765,-2.57196545601,-4.09819364548,8.60132312775,0,0,0,22.015348833,12.2631177958,-4.49335030683,22.75,0.00212738966708,0.00322044071307,0.000685017376439,-0.0166594982147,-0.0846326425672,0.0753469765186,0.388645648956,0.856256008148,-0.402542591095
1586436564.99,-26.3129253387,14.1352996826,9.43850421906,-2.5031452179,-4.09256029129,8.56866836548,0,0,0,22.0184634566,12.4024057737,-4.52118695628,22.76,0.0021111021821,0.00323912814577,0.000691015230435,-0.0441998317838,-0.0911861732602,0.0849269405007,0.390465736389,0.849328994751,-0.404792785645
1586436565.25,-26.2728366852,13.886677742,10.9006290436,-2.31920528412,-4.13982534409,8.46643638611,0,0,0,22.0206149895,12.534083416,-4.55118724215,22.76,0.00211632063687,0.00325018521315,0.000679651608362,-0.0325545705855,-0.0625744462013,0.115337245166,0.400704145432,0.844213008881,-0.402368307114
1586436565.51,-26.3161716461,13.8189468384,12.4145927429,-2.27617406845,-4.27528190613,8.458943367,0,0,0,22.0184716881,12.6622483685,-4.57867118092,22.77,0.00212630512668,0.00324173163852,0.000666781545188,-0.0530988015234,-0.0527232922614,0.108019262552,0.416674852371,0.839091300964,-0.402801513672
1586436565.92,-27.8402938843,13.8243675232,16.740568161,-2.23247909546,-4.45496749878,8.40288352966,0,0,0,22.0028516438,12.8706360936,-4.62224317648,22.75,0.00214327525898,0.00324052379461,0.000663003244052,-0.00920742750168,-0.0288635548204,0.137846916914,0.452813863754,0.838297843933,-0.377748012543
1586436566.19,-26.3442440033,14.5882959366,18.5908966064,-2.54132246971,-4.26909065247,8.66825389862,0,0,0,21.9856548474,13.0080601832,-4.63717734986,22.76,0.00213215695691,0.00323203918437,0.000686797553759,0.164441019297,-0.00493079423904,0.194869235158,0.474390029907,0.813516139984,-0.386569738388
1586436566.44,-23.6174049377,15.2467460632,20.600435257,-2.56844711304,-3.6347784996,8.65148162842,0,0,0,21.9696901481,13.1419386081,-4.65472148169,22.76,0.002133856342,0.00325620674925,0.000683513713554,0.152178838849,-0.0313296839595,0.157069399953,0.501866102219,0.783410787582,-0.413978099823
1586436566.69,-22.3090515137,15.2305316925,22.0224533081,-2.53273868561,-3.50217366219,9.00897502899,0,0,0,21.9538727051,13.2783490887,-4.65673752291,22.77,0.00214061139509,0.00327102914532,0.000722097948965,0.0122882444412,-0.0575155057013,0.073746599257,0.513097524643,0.765455722809,-0.434356927872
1586436567.13,-25.3388690948,14.2977609634,23.2641716003,-2.47818875313,-4.12027072906,8.66394519806,18.6787,-10.2909,3.98670391138,21.2665098544,8.7525927866,-4.73753804686,22.75,0.00324009427862,0.00038442621469,-0.000315587442021,-0.0974312499166,-0.039541721344,0.0339873097837,0.511065006256,0.782996416092,-0.396913528442
1586436567.39,-25.7572841644,13.8960952759,24.1214790344,-2.387383461,-4.18335723877,8.76121330261,0,0,0,21.268764552,8.85188154143,-4.75757443506,22.76,0.00323493528848,0.00037843514266,-0.000288390671904,-0.035472214222,-0.0698655918241,0.0713847652078,0.512960910797,0.784802913666,-0.396349430084
1586436567.64,-26.1898365021,13.5333738327,25.1344776154,-2.38216352463,-4.20402622223,8.50687217712,0,0,0,21.2659216253,8.94870201395,-4.78552817853,22.77,0.00322138505981,0.000379178288969,-0.000296663751691,-0.147016361356,-0.0712975859642,0.0380821637809,0.516360282898,0.779626369476,-0.394856452942
1586436567.89,-30.0799694061,12.7658929825,24.9380626678,-2.20991158485,-4.58547973633,7.99907159805,0,0,0,21.2646838399,9.04922461709,-4.83281782138,22.76,0.00321472013072,0.000410616135079,-0.00033888865302,-0.597346007824,-0.031101712957,-0.119709998369,0.501284837723,0.810721874237,-0.352919816971
1586436568.32,-60.9488601685,8.195977211,26.8330421448,-1.57902538776,-8.25450706482,4.77470445633,0,0,0,21.2546141089,9.16970668749,-4.96591054251,22.75,0.00318647888309,0.000447671814538,-0.0003289673344,-0.659494161606,-0.314961463213,0.147970795631,0.423111438751,0.925712585449,0.0798788070679
1586436568.58,-66.8358688354,7.97898340225,31.0763187408,-1.55946135521,-8.88836860657,3.8602449894,0,0,0,21.2367924238,9.23286585357,-5.04886921342,22.76,0.00315530123919,0.000454988697972,-0.000322978236073,-0.490111261606,-0.355105191469,0.136794924736,0.446442127228,0.903618812561,0.157297134399
1586436568.84,-70.8764343262,7.95461082458,35.5836753845,-1.6587562561,-9.17426204681,3.4466791153,0,0,0,21.208977826,9.29439570905,-5.12492455846,22.76,0.00310778500252,0.000457163619402,-0.000282109251105,-0.339655667543,-0.396135509014,0.134714737535,0.474394321442,0.879059791565,0.188773393631
1586436569.1,-73.2348480225,7.77568054199,40.5968322754,-1.43459892273,-9.39472961426,3.04909038544,17.1063,-11.4767,4.0283249813,20.4735226714,5.62841260821,-5.1721862689,22.75,0.00357174232027,-0.00201776064663,-0.00129744352507,-0.209283858538,-0.440481394529,0.102881364524,0.505217552185,0.860401391983,0.200458049774
1586436569.53,-77.191116333,6.12908267975,54.9042434692,-0.957755208015,-9.527592659,2.31800508499,0,0,0,20.4436981193,5.66758133539,-5.29030760321,22.74,0.00358506475486,-0.00201860385845,-0.00127364742687,-0.162707298994,-0.315834671259,0.0730537027121,0.563994884491,0.831788063049,0.137020349503
1586436569.79,-78.1806564331,6.43534135818,58.156917572,-0.898881793022,-9.5603351593,2.2462246418,0,0,0,20.4277289879,5.69080095491,-5.35715854703,22.75,0.00361558302163,-0.00201931792186,-0.00123531108177,-0.0900954157114,-0.231520876288,0.103136174381,0.580165624619,0.816885709763,0.131172895432
1586436570.04,-78.5235748291,6.84068012238,60.8548278809,-1.29229450226,-9.45426177979,2.08129858971,0,0,0,20.3983614685,5.71910235327,-5.42466383256,22.76,0.00359604650667,-0.00200363447509,-0.00121276979371,-0.0624775998294,-0.228334993124,0.0671915784478,0.598850011826,0.808325529099,0.114012718201
1586436570.29,-78.6062011719,6.9261302948,63.5180358887,-1.28924763203,-9.41776371002,1.91917479038,0,0,0,20.3651460123,5.74600810266,-5.49589837424,22.76,0.0035791454268,-0.00198268816576,-0.00121284178503,-0.0198483429849,-0.22661831975,0.0613324306905,0.610934734344,0.800337791443,0.0884525775909
1586436570.72,-78.3207015991,7.80479574203,72.2276000977,-1.268014431,-9.40766429901,1.89688169956,19.6307,-9.7344,3.99562271208,20.2607193854,3.32086164087,-5.54244015465,22.74,0.00401321703439,-0.00360203471957,-0.00201144704012,-0.0954017043114,-0.248970106244,0.074940174818,0.648273468018,0.775429010391,0.00602102279663
1586436570.98,-78.2470321655,8.37269115448,74.9960861206,-1.58753824234,-9.43883132935,2.03389048576,0,0,0,20.2340887073,3.33650131237,-5.60863290306,22.76,0.00398840795519,-0.0035909687275,-0.00200237856259,0.0291399657726,-0.196674466133,0.111254312098,0.658710002899,0.763992071152,-0.0173542499542
1586436571.23,-77.7474899292,8.76964092255,77.0727233887,-1.70264434814,-9.55581092834,2.19616270065,0,0,0,20.2038580008,3.35134737797,-5.6694749433,22.76,0.0039561054427,-0.00360189892308,-0.00198149928023,-0.0102743506432,-0.17380566895,0.0539802014828,0.669434309006,0.750415563583,-0.0432803630829
1586436571.49,-77.997467041,8.8344373703,79.3964996338,-1.6815649271,-9.45296669006,2.20193696022,0,0,0,20.1726059489,3.36936279204,-5.7298377996,22.76,0.00392876066047,-0.00359548523138,-0.0019526482159,-0.103177130222,-0.199680045247,0.0545628406107,0.671854496002,0.748063802719,-0.0622024536133
1586436571.92,-82.3462600708,9.28753662109,85.8404998779,-1.74778163433,-9.59589004517,1.54155087471,21.8314,18.5392,3.98868586709,20.2700384862,5.59864038602,-5.3060116467,22.74,0.00360416801468,-0.00238355837385,-0.000752137288352,-0.203618451953,-0.175735384226,0.055382411927,0.680716753006,0.743510961533,-0.075856924057
1586436572.18,-84.2108154297,9.57988262177,87.7382202148,-1.71512269974,-9.52294254303,0.863664209843,0,0,0,20.2165313696,5.62280301634,-5.36443120711,22.76,0.00359094379413,-0.00236759690605,-0.000768869001316,-0.210893198848,-0.162924826145,0.0443242490292,0.678782939911,0.737272262573,-0.070371389389
1586436572.44,-86.1305007935,9.82748126984,89.7609863281,-1.83657431602,-9.5182762146,0.78783929348,0,0,0,20.1602900617,5.65087367947,-5.41641372895,22.76,0.00356585561023,-0.00234656451864,-0.000747597577037,-0.192041695118,-0.182007268071,0.0386692583561,0.678769350052,0.739965438843,-0.0656988620758
1586436572.7,-87.7423019409,10.1010093689,91.9538574219,-1.92438340187,-9.53212738037,0.576378285885,0,0,0,20.1014596784,5.6793045795,-5.46471854867,22.75,0.0035343198666,-0.00232634379094,-0.000717011476551,-0.178401201963,-0.185234844685,0.0317551232874,0.680888414383,0.740716218948,-0.0672047138214
1586436573.12,-90.6412811279,10.7545919418,99.1761474609,-1.95177066326,-9.70326137543,0.27418076992,0,0,0,20.0026612484,5.71896922288,-5.53010669329,22.75,0.0035155500219,-0.00233401766725,-0.000657733594525,-0.0134676704183,-0.237910449505,0.0442631579936,0.676026821136,0.743327856064,-0.10327911377
1586436573.38,-90.2183303833,11.0651082993,102.306999207,-2.03505158424,-9.69138717651,-0.125988408923,19.6616,-8.7765,3.97481217712,19.9791522894,3.81706283294,-5.62919728193,22.76,0.00365556793126,-0.00363407768803,-0.00159342758775,-0.0466540455818,-0.295595824718,0.00525638507679,0.670361995697,0.739310503006,-0.140173196793
1586436573.63,-90.1347045898,11.0383682251,105.814704895,-1.8974531889,-9.72359371185,0.280048012733,0,0,0,19.9291090515,3.82959695832,-5.67118693193,22.76,0.00365287639367,-0.00364632637447,-0.00154695317611,-0.0615418069065,-0.295570492744,-0.00623911665753,0.661953687668,0.739995241165,-0.180098056793
1586436573.89,-90.1537475586,10.8424634933,109.060035706,-2.00619649887,-9.61616420746,0.201932758093,0,0,0,19.8726686185,3.84432487099,-5.71091061149,22.76,0.00362809787858,-0.00364131685172,-0.0015117393113,-0.0556394569576,-0.279361009598,-0.0189423561096,0.651288509369,0.744243621826,-0.212858438492
1586436574.32,-89.2175445557,9.25734996796,119.834075928,-1.6849899292,-9.5921125412,0.300213605165,0,0,0,19.7662021218,3.86618626722,-5.76648508117,22.74,0.00361138878053,-0.0036253181381,-0.00148501886463,-0.0153601178899,-0.335565209389,-0.0674605444074,0.586625576019,0.758555173874,-0.326438903809
1586436574.58,-88.6859436035,8.25580024719,123.549438477,-1.53166365623,-9.77599048615,0.178364351392,0,0,0,19.7006589997,3.87309272971,-5.79486697007,22.76,0.0035913433382,-0.00363558780263,-0.00149238851986,-0.00283569120802,-0.298975408077,-0.0788182020187,0.556242465973,0.768197059631,-0.365919828415
1586436574.84,-87.9953460693,7.15814590454,126.918586731,-1.35765218735,-9.74760150909,0.628052949905,20.6112,17.6792,3.88562417015,19.6701038378,5.67755981288,-5.26721928115,22.76,0.00335971895475,-0.00270352685429,-0.000222108812116,0.0114671885967,-0.292837649584,-0.089693069458,0.525528669357,0.772893667221,-0.406267404556
1586436575.09,-87.617149353,5.89651966095,130.272781372,-1.15666651726,-9.77341461182,0.546838819981,0,0,0,19.5969626702,5.70160304682,-5.27329275281,22.76,0.00333647965156,-0.00270582315294,-0.000200748181918,-0.0110134491697,-0.291308790445,-0.0831320881844,0.490807771683,0.780468463898,-0.441652774811
1586436575.53,-83.7659225464,3.44863128662,138.552581787,-0.823200106621,-9.66091537476,0.805675268173,0,0,0,19.4666559791,5.72792297253,-5.27311186149,22.75,0.00329834373207,-0.00269439985415,-0.000241842805778,-0.044359266758,-0.247411444783,-0.143706798553,0.406294822693,0.754732370377,-0.558362722397
1586436575.78,-83.4990234375,1.76414263248,140.893096924,-0.503304719925,-9.76019763947,1.2026258707,0,0,0,19.3906141075,5.74517973903,-5.26459537684,22.76,0.00326620949218,-0.00269606466957,-0.000228027110635,0.0810064524412,-0.167943567038,-0.0866741165519,0.369415044785,0.760323286057,-0.576749563217
1586436576.04,-80.8782653809,1.04435968399,142.434997559,-0.273575097322,-9.71968173981,1.59184634686,0,0,0,19.3155230725,5.75940465954,-5.25629367236,22.76,0.00325069645032,-0.00270063925932,-0.000222696336174,0.371720612049,-0.173982992768,0.00444129109383,0.351538896561,0.735588312149,-0.621967792511
1586436576.29,-74.9543991089,0.870056152344,144.400924683,0.062874943018,-9.44799423218,2.53313827515,0,0,0,19.2444036303,5.77150992969,-5.25187247393,22.76,0.00328405485733,-0.00269542435323,-0.000224060243518,0.591211855412,-0.197823375463,0.0335402861238,0.337887525558,0.664499282837,-0.702166557312
1586436576.73,-52.2201194763,2.68740296364,149.464508057,-0.702370166779,-7.7275633812,6.05632066727,0,0,0,19.1180355065,5.78335965379,-5.21347105825,22.74,0.00324454035648,-0.00269171590883,-0.000216637698731,0.771900296211,0.060475628823,0.161767780781,0.331124067307,0.323870658875,-0.912781476974
1586436576.98,-43.4236297607,4.33200359344,149.842987061,-0.741641104221,-6.53565740585,7.03034639359,0,0,0,19.042145292,5.78886163213,-5.1943986033,22.76,0.00324392066375,-0.00266033819103,-0.000228306425034,0.728280246258,0.0708423703909,0.105691716075,0.349393606186,0.171573877335,-0.947594404221
1586436577.24,-37.2992172241,5.2447719574,149.266830444,-1.05978453159,-5.84145212173,7.64328861237,0,0,0,18.9643702688,5.78978096281,-5.17106942963,22.76,0.00321650553341,-0.00264737295419,-0.000249771083408,0.389503657818,0.117202840745,-0.0478357002139,0.365333080292,0.0690371990204,-0.942140817642
1586436577.5,-31.6905269623,6.34517860413,148.48664856,-1.5776515007,-4.97582244873,7.86694574356,0,0,0,18.8803497514,5.78222182713,-5.14642743677,22.76,0.00313392952529,-0.00262484237003,-0.000321400596913,0.635072052479,0.121713452041,0.092137619853,0.383526563644,-0.0168402194977,-0.942080974579
1586436577.93,-11.043794632,10.3001775742,153.269180298,-1.77643227577,-1.74028146267,9.45179653168,0,0,0,18.7641234632,5.76488414932,-5.10145468322,22.75,0.00312987678584,-0.00260631201767,-0.00032514027417,0.00321194599383,0.040390342474,0.0489600040019,0.383245229721,-0.3688788414,-0.843529224396
1586436578.18,-12.693728447,10.7558746338,153.356262207,-1.88110232353,-1.94178116322,9.27847290039,0,0,0,18.690859061,5.7537574273,-5.07580403439,22.76,0.00312089405454,-0.00257688007979,-0.000345630801509,-0.262020558119,0.02713576518,0.00371858524159,0.388682842255,-0.349175691605,-0.851531744003
1586436578.44,-16.1129875183,10.9519138336,153.399200439,-2.02253341675,-2.76660633087,9.60527229309,18.0685,-7.4833,3.64679850705,18.554401755,4.2718137588,-5.38144957942,22.76,0.00277528001668,-0.00322851338633,-0.00148606974625,-0.311921566725,0.00155195593834,0.0298120100051,0.391332387924,-0.294609546661,-0.871882677078
1586436578.7,-19.0209026337,11.0327100754,154.095748901,-1.99512052536,-3.20793938637,9.21612262726,0,0,0,18.4881806843,4.26977344023,-5.36266253729,22.75,0.00275587166277,-0.00323912691447,-0.00146888328074,-0.243061825633,-0.0235155262053,0.0867553055286,0.39012169838,-0.254667043686,-0.885959386826
1586436579.13,-21.9604206085,11.8855733871,158.274368286,-2.22202253342,-3.51574349403,9.33507442474,0,0,0,18.378083946,4.26910228495,-5.32195679392,22.75,0.00272386970556,-0.00322458677198,-0.0013991554481,-0.0969394892454,-0.0219717603177,0.102820247412,0.365640163422,-0.220022439957,-0.909156799316
1586436579.38,-22.3819293976,11.983127594,159.58253479,-2.13814067841,-3.46701335907,8.79977035522,0,0,0,18.3073124915,4.26058780294,-5.30463563645,22.76,0.0027064200506,-0.00319263939122,-0.00141139567138,-0.0309839900583,-0.0551298260689,0.118295103312,0.352232933044,-0.212932109833,-0.919841051102
1586436579.64,-21.7832450867,11.536687851,161.005203247,-2.01719927788,-3.52401471138,9.1274433136,0,0,0,18.2414919852,4.25601032344,-5.28144043942,22.76,0.00269775182469,-0.00318394973247,-0.00137852492829,0.064434863627,-0.103466227651,0.0824876204133,0.336091518402,-0.223637580872,-0.925109624863
1586436579.9,-20.7319946289,10.6809415817,162.009750366,-1.80198323727,-3.27924013138,9.01354980469,12.6271,-8.7922,3.61806014925,17.6799699221,2.9628115636,-5.63342068695,22.75,0.00218213035692,-0.00308157237825,-0.00257988206428,0.0660575926304,-0.0896811485291,0.0331558324397,0.316699266434,-0.240686416626,-0.926563262939
1586436580.32,-19.8526153564,9.91422080994,163.378646851,-1.81322622299,-3.22195577621,8.95950317383,0,0,0,17.5714741008,2.93264103712,-5.63141084273,22.74,0.00216018015883,-0.00307127585305,-0.00260162053582,-0.0783875659108,-0.012132525444,0.0107355425134,0.294840812683,-0.255678653717,-0.938368797302
1586436580.58,-19.8637161255,9.88386821747,163.802581787,-1.61155891418,-3.29042220116,9.03663349152,0,0,0,17.5055002929,2.91520828521,-5.63229150453,22.75,0.00217195995634,-0.00307176327192,-0.0026100552655,0.0803150236607,-0.0127017516643,0.0744916573167,0.289730787277,-0.257796764374,-0.936445951462
1586436580.85,-17.0310497284,10.2276391983,164.915176392,-1.75536906719,-2.7553665638,9.27721977234,0,0,0,17.438112133,2.89855421083,-5.62979695995,22.76,0.00216972770234,-0.00305853604132,-0.00260242642434,0.296077877283,0.00471696257591,0.117244578898,0.282695531845,-0.303944826126,-0.923112869263
1586436581.11,-13.1203222275,10.5184440613,166.246047974,-1.833542943,-2.09024882317,9.33887386322,0,0,0,17.3716070883,2.87841320574,-5.63006218368,22.76,0.00216197087334,-0.00304107178042,-0.00261147655196,0.310786813498,-0.0180497728288,0.136809766293,0.271234512329,-0.367512226105,-0.902350664139
1586436581.53,-9.64747714996,10.43653965,168.210235596,-1.83395886421,-1.49419724941,9.46860694885,16.7979,-6.9706,3.59923157001,17.1743724053,2.03687914207,-5.78399882254,22.75,0.00165933788529,-0.00298263533016,-0.00327466019305,-0.0282540936023,-0.0238433480263,0.0669635757804,0.250605106354,-0.424217224121,-0.885091781616
