Timestamp,Roll,Pitch,Yaw,Acc_X,Acc_Y,Acc_Z,USBL_X,USBL_Y,Depth,Est_X,Est_Y,Est_Z,Temp,State_6,State_7,State_8,Gyro_X,Gyro_Y,Gyro_Z,Mag_X,Mag_Y,Mag_Z
1586434520.86,-0.0506402701139,-0.146289199591,9.70584869385,0,0,0,-2.0811,-0.5805,0.568821288872,-2.0811,-0.5805,0.568821288872,26.63,0,0,0,,,,,,
1586434520.91,-0.89267462492,0.297442048788,-26.6621875763,-0.0134765747935,-0.234663397074,9.79436206818,0,0,0,-2.0811,-0.580500000001,-0.568821288872,26.72,3.74776161929e-06,-8.17827864893e-06,-1.83178193571e-06,-0.0277496892959,-0.000312924385071,0.000348128407495,-0.239905595779,0.580596208572,-0.825495958328
1586434521.17,-7.81845378876,-58.2537345886,152.253005981,8.25587654114,-0.52287375927,5.35757637024,0,0,0,-2.08110062884,-0.580500309344,-0.568820849006,26.59,-5.29444398385e-06,9.89991068348e-06,2.25162154401e-05,0.227280214429,-0.00762157235295,-0.0626359283924,-0.54162812233,-0.3873295784,-0.769899845123
1586434521.42,-7.61499357224,-58.2619514465,152.180908203,8.16498947144,-0.505200624466,5.26640748978,0,0,0,-2.08110368681,-0.580504207571,-0.56881718979,26.53,-2.36788776141e-05,2.80275987789e-05,3.76533857912e-05,0.239129245281,-0.00807866733521,-0.0607870668173,-0.538927078247,-0.389127969742,-0.768176555634
1586434521.68,-2.57975506783,-59.1719093323,150.269287109,8.43572425842,-0.21936199069,5.11368942261,0,0,0,-2.08111083404,-0.580509846336,-0.5688117523,26.48,-2.28244256506e-05,2.87392571776e-05,4.67714682049e-05,0.0956421941519,-0.0764236077666,-0.0657357424498,-0.53937458992,-0.439780712128,-0.731205940247
1586434521.94,-2.69145202637,-59.268283844,148.088973999,8.22320842743,-0.281183958054,5.11398744583,0,0,0,-2.08111875612,-0.580520738099,-0.568792487145,26.43,-4.46396861161e-05,2.4048040487e-05,5.74781947577e-05,-0.173770293593,0.0535046756268,-0.065189242363,-0.533748149872,-0.431609153748,-0.74930024147
1586434522.2,-2.20436024666,-58.4383010864,147.13142395,8.3362531662,-0.446503043175,5.11713266373,0,0,0,-2.08112198927,-0.580516281912,-0.568767456019,26.37,-4.73238996395e-05,-1.66665145967e-06,5.58324725733e-05,0.0240048412234,0.0520119480789,-0.00223144888878,-0.51895570755,-0.430577993393,-0.757225513458
1586434522.45,-4.94455480576,-57.1318244934,148.68687439,8.07403564453,-0.467581480742,5.20837831497,0,0,0,-2.08111131932,-0.580531638961,-0.568734145965,26.33,-6.48765251587e-05,-2.55112627237e-06,4.56490849398e-05,-0.170366868377,0.105093255639,0.0919906497002,-0.512942790985,-0.402998447418,-0.77971124649
1586434522.71,-6.88866996765,-55.7076721191,150.932449341,8.1766462326,-0.55493170023,5.42731761932,0,0,0,-2.08111508913,-0.580551596213,-0.56872187035,26.28,-5.76985374758e-05,8.77030310788e-06,3.9147774083e-05,0.202125519514,0.0812476575375,0.077191196382,-0.501669645309,-0.386250019073,-0.79323387146
1586434522.97,-5.17807340622,-54.6278686523,152.431808472,8.01335430145,-0.557711005211,5.5257935524,0,0,0,-2.08109223547,-0.58055743325,-0.568704212436,26.23,-5.65428355412e-05,4.03686693218e-06,2.52338991516e-05,0.00289771705866,0.0301701966673,0.0921635106206,-0.495756626129,-0.419329881668,-0.776540517807
1586434523.23,-8.95718574524,-54.8396186829,154.98588562,8.34111976624,-0.688189983368,5.46497583389,0,0,0,-2.08111717115,-0.580581885912,-0.568771957107,26.18,-2.28934947106e-05,2.43375949281e-05,1.27730392116e-05,-0.146179303527,-0.0318020582199,0.0637749359012,-0.515357732773,-0.386771917343,-0.786386728287
1586434523.49,-10.7177209854,-56.0526924133,155.681411743,8.01878166199,-0.73131108284,5.61118602753,0,0,0,-2.08118897641,-0.580699810789,-0.568710852776,26.14,-3.59360767968e-05,5.50080674178e-05,3.68888051224e-05,0.0400369949639,-0.0259797982872,-0.00880137179047,-0.533066511154,-0.369351148605,-0.782935142517
1586434523.74,-7.83826732635,-56.619228363,155.341323853,8.32113170624,-0.620682120323,5.41027069092,0,0,0,-2.081264945,-0.580764633849,-0.568724546687,26.09,-2.24110396675e-05,6.74070705775e-05,4.34300383571e-05,0.20718896389,-0.0523097924888,-0.0223986841738,-0.536545276642,-0.407019615173,-0.760951042175
1586434524.0,-5.80371189117,-57.5270080566,154.281356812,8.33179092407,-0.542522072792,4.99561214447,-2.0336,-0.6781,0.5549475989,-2.08120554274,-0.580810639246,-0.568791374597,26.05,-1.6909042419e-05,6.64989180954e-05,1.67631328021e-05,-0.00169575249311,-0.0709027126431,-0.0174675136805,-0.542471170425,-0.430140256882,-0.742880582809
1586434524.25,-5.68086385727,-58.8093986511,152.292785645,8.40211772919,-0.538939774036,5.21842336655,0,0,0,-2.08129820762,-0.580838532775,-0.568736071076,26.0,-1.617614192e-05,6.26045323178e-05,3.4210181695e-05,-0.0945903509855,-0.0536624453962,-0.0635359510779,-0.54892039299,-0.424314260483,-0.740822315216
1586434524.51,-6.30135822296,-59.6864280701,151.709350586,8.57302093506,-0.647739827633,5.15773963928,0,0,0,-2.08147804848,-0.580794725548,-0.568675188871,25.96,-5.16956606471e-06,5.12402987443e-05,5.97703102266e-05,-0.0883188173175,-0.0579539723694,0.0191265717149,-0.552993774414,-0.409183740616,-0.737589597702
1586434524.77,-8.36386013031,-59.4128456116,152.364028931,8.49036979675,-0.726040124893,4.90095853806,0,0,0,-2.08152408113,-0.580827816359,-0.568696968599,25.92,-5.66414824125e-07,5.12740449369e-05,5.53983739783e-05,-0.0641696155071,0.0439595542848,0.02968162857,-0.555268764496,-0.385690450668,-0.754756689072
1586434525.03,-8.93763828278,-58.7688598633,152.986984253,8.49757480621,-0.766798853874,5.02797889709,0,0,0,-2.08163389738,-0.580858807181,-0.568758537336,25.88,1.11173853527e-05,5.38906198665e-05,5.55340981658e-05,-0.0357527285814,0.0590303950012,0.0371718779206,-0.551377058029,-0.382513046265,-0.759632110596
1586434525.28,-12.4576044083,-57.7835998535,154.187255859,8.15089988708,-1.0084207058,4.88141441345,0,0,0,-2.08146953413,-0.581084641579,-0.568774997483,25.84,-5.7841403586e-06,6.72385405172e-05,3.02649182608e-05,-0.160680755973,0.0631297081709,0.0618124492466,-0.547430753708,-0.348713159561,-0.78658413887
1586434525.54,-15.256072998,-58.7536964417,155.178222656,7.83724689484,-1.0355257988,4.83515167236,0,0,0,-2.081230883,-0.581685573041,-0.568387791034,25.8,-6.75965136292e-05,0.000101200809778,2.17526923691e-05,-0.0422280356288,-0.131693527102,-0.0233236737549,-0.56040096283,-0.313201904297,-0.786312818527
1586434525.8,-12.2657718658,-59.0512695312,153.602081299,8.4765920639,-0.944931268692,4.96163797379,0,0,0,-2.08135018718,-0.581941810094,-0.568406796787,25.76,-6.08634344676e-05,0.00011549842789,2.50993076989e-05,0.0178771056235,0.0175381097943,-0.0504903495312,-0.559956789017,-0.345991849899,-0.775282144547
1586434526.06,-10.263502121,-58.6616592407,151.814056396,8.24123764038,-0.904443502426,5.10381650925,0,0,0,-2.0813844739,-0.58216109454,-0.568145771165,25.72,-7.6798392313e-05,0.00011605001626,3.4290096492e-05,-0.0213772058487,0.0143012059852,-0.0327326394618,-0.544938087463,-0.361067771912,-0.779350042343
1586434526.32,-10.5502271652,-58.2685432434,150.949081421,8.35465908051,-0.916147530079,5.14283370972,0,0,0,-2.08152223199,-0.582363586305,-0.568041924326,25.68,-7.59218642622e-05,0.000119325543478,4.20788469464e-05,-0.111668951809,0.0279152821749,0.000691227731295,-0.538136720657,-0.349128961563,-0.788566350937
1586434526.57,-12.5555896759,-58.1173553467,150.693130493,8.55756950378,-0.892557859421,5.05786371231,0,0,0,-2.08183640923,-0.582788512955,-0.568363541904,25.65,-5.0277026355e-05,0.000146101915715,4.1874621542e-05,-0.173238694668,-0.0114236054942,-0.0172793921083,-0.535434246063,-0.323117017746,-0.802290916443
1586434526.83,-11.8769779205,-58.4509086609,149.011184692,8.57271671295,-1.08600819111,4.91050243378,0,0,0,-2.08190005102,-0.582842359361,-0.568735516186,25.61,-2.62041834427e-05,0.000142730351614,2.86997254173e-05,0.132442489266,0.0113243265077,-0.0803913921118,-0.531476736069,-0.316606521606,-0.808819532394
1586434527.09,-9.97972106934,-59.1480674744,147.66645813,8.41423034668,-0.727310478687,4.96306467056,0,0,0,-2.08205198246,-0.583327607753,-0.56879077871,25.58,-2.74781522183e-05,0.000159465944954,2.94350827581e-05,0.00502038747072,-0.0586684904993,-0.0489387772977,-0.534046411514,-0.335970878601,-0.795637130737
1586434527.35,-9.02163887024,-59.9317817688,145.950210571,8.67988014221,-0.771537125111,5.14096641541,-2.0479,-0.7995,0.55692955461,-2.08285671594,-0.583419008455,-0.568826109087,25.55,-6.65236029539e-06,0.000161043867108,6.21723455847e-05,-0.167618349195,-0.00812783837318,-0.0628743395209,-0.534123420715,-0.339857339859,-0.793984889984
1586434527.61,-10.1464242935,-60.3411102295,143.812408447,8.50135612488,-0.65758061409,4.70797491074,0,0,0,-2.0829593484,-0.584120433308,-0.569019038325,25.51,-9.79492446134e-06,0.000184170628525,5.36999155586e-05,-0.154348671436,-0.00719670346007,-0.0798372626305,-0.531311511993,-0.308283090591,-0.811570167542
1586434527.86,-8.00862693787,-60.6243782043,140.68611145,8.61313247681,-0.762128531933,4.62371730804,0,0,0,-2.08282518395,-0.584145558356,-0.569344626895,25.48,-2.62232120629e-06,0.000173399778747,3.68297216271e-05,0.0960899591446,0.00104848330375,-0.0956211388111,-0.523177623749,-0.311970472336,-0.813584327698
1586434528.12,-3.28313302994,-61.198802948,138.70085144,8.73302078247,-0.557982206345,4.71736383438,0,0,0,-2.08292605761,-0.583527285712,-0.569534171677,25.45,1.31077977094e-05,0.000139423724919,3.64723065319e-05,0.130164846778,-0.0413898453116,-0.0192239936441,-0.523651123047,-0.363669157028,-0.786013126373
1586434528.37,-4.47326993942,-61.7457771301,139.559677124,8.73377895355,-0.404148131609,4.58889818192,0,0,0,-2.08304579425,-0.583512436769,-0.569880584908,25.42,2.36925687004e-05,0.000134438011834,3.138681274e-05,0.0132514191791,-0.0302758105099,0.0374594703317,-0.532813072205,-0.356587171555,-0.787337303162
1586434528.63,-7.19895219803,-62.6771011353,140.938934326,8.82838630676,-0.354512482882,4.35433483124,0,0,0,-2.08320585958,-0.584192918388,-0.570671698471,25.39,3.67542541142e-05,0.000159522752063,1.76575187266e-05,-0.100785143673,-0.0748533830047,0.0101605430245,-0.549832105637,-0.331976175308,-0.786625146866
1586434528.89,-6.91190481186,-63.7654190063,140.571517944,8.83187675476,-0.499771386385,4.41823577881,0,0,0,-2.08373678513,-0.584413298189,-0.570762711473,25.36,4.0210628417e-05,0.000162184193982,3.10554817963e-05,0.137551307678,-0.0243324842304,-0.0370867587626,-0.561331033707,-0.332635164261,-0.774195671082
1586434529.15,-4.41424608231,-63.7451858521,140.017822266,8.83727169037,-0.4936645329,4.3350110054,0,0,0,-2.08383476149,-0.584064078716,-0.570851530501,25.33,4.45225116369e-05,0.00014289026239,3.18405039744e-05,0.101243525743,-0.00957287941128,0.0299146398902,-0.561376333237,-0.362667560577,-0.757645845413
1586434529.41,-6.67047357559,-63.6324272156,141.663787842,8.81431865692,-0.41513261199,4.43744945526,0,0,0,-2.08450392485,-0.584520323174,-0.571009370268,25.3,4.71092557219e-05,0.000153949296261,4.49924169508e-05,-0.0656951293349,0.0340631231666,0.055496212095,-0.563835382462,-0.348659276962,-0.763772010803
1586434529.67,-6.58341646194,-63.0174636841,143.296081543,8.87634944916,-0.630446314812,4.46195697784,0,0,0,-2.08494159012,-0.584070063051,-0.571352691935,25.27,6.30620255177e-05,0.000139281228878,4.96920653987e-05,0.122759878635,0.0241417493671,0.0774860531092,-0.562414646149,-0.359841108322,-0.758774280548
1586434529.93,-8.56650733948,-61.965511322,145.99899292,8.66783428192,-0.584607303143,4.37166452408,0,0,0,-2.08458727133,-0.584733457957,-0.572103318119,25.24,6.37127609608e-05,0.000151849478424,2.64145649996e-05,0.00688787689433,0.0578863695264,0.0970317348838,-0.560632228851,-0.352690458298,-0.763144493103
1586434530.19,-11.970905304,-61.9053916931,148.75177002,8.71238517761,-0.790740191936,4.38523197174,0,0,0,-2.08454947128,-0.585632159885,-0.573060661223,25.22,7.04656145061e-05,0.000172557018948,9.62517888606e-06,-0.129833459854,-0.0558499284089,0.0787766575813,-0.569551944733,-0.333402395248,-0.768318891525
1586434530.45,-12.3172369003,-62.4182510376,149.310699463,8.80316925049,-0.9124173522,4.39031028748,0,0,0,-2.08480646829,-0.586001619393,-0.573900681454,25.19,8.34286436917e-05,0.000179601345374,3.52905002535e-06,0.150634914637,-0.0161942113191,-0.0497177317739,-0.578799962997,-0.330796718597,-0.76246380806
1586434530.71,-11.5263500214,-63.1096153259,149.640167236,8.77022171021,-0.87296795845,4.39660692215,0,0,0,-2.08526551774,-0.586353758566,-0.574151210107,25.16,8.55863034345e-05,0.000181322281674,9.44268935071e-06,0.0960575342178,-0.0603899396956,0.0415058806539,-0.585664987564,-0.34609746933,-0.747172117233
1586434530.97,-12.3737802505,-63.4385108948,151.974990845,8.78824520111,-0.800743818283,4.32928800583,0,0,0,-2.08589337761,-0.587369202124,-0.574599137337,25.14,8.68379791222e-05,0.000198816064624,1.48128639899e-05,0.0658823102713,-0.0450748987496,0.0363720580935,-0.598902463913,-0.351688623428,-0.730921268463
1586434531.23,-12.0158166885,-64.1665496826,152.281921387,8.90441703796,-0.797137141228,4.28304052353,0,0,0,-2.08692672356,-0.588057485665,-0.575107209929,25.11,9.58032135604e-05,0.000210537742977,2.74489148962e-05,0.153979882598,-0.0457853153348,0.00276248971932,-0.610589742661,-0.361763954163,-0.717954158783
1586434531.48,-11.1962432861,-64.1980514526,153.18637085,8.97082138062,-0.770020782948,4.34955453873,0,0,0,-2.08845960924,-0.588416316077,-0.575719670827,25.09,0.000112930134937,0.000218039888844,4.76205490797e-05,-0.0376373566687,0.0417007133365,0.0455414913595,-0.616416931152,-0.379883289337,-0.702639818192
1586434531.74,-12.3512802124,-63.2665557861,153.213912964,8.8708562851,-0.748007774353,4.38728237152,0,0,0,-2.08981539724,-0.589713093058,-0.576751546931,25.07,0.000126405167208,0.000243023300726,5.71348351665e-05,0.0350860878825,0.0921400263906,-0.0168021768332,-0.605647802353,-0.360869884491,-0.720042228699
1586434532.0,-10.0207567215,-61.5402450562,152.112426758,8.45398521423,-0.919747710228,4.32602357864,0,0,0,-2.08793289356,-0.590165282776,-0.576825779335,25.04,0.00010411101425,0.000229425989526,2.13564142647e-05,0.15266148746,0.137730121613,0.0282177757472,-0.583590507507,-0.379542589188,-0.732232093811
1586434532.26,-10.0847387314,-60.898601532,152.854919434,8.66419315338,-0.85330915451,4.52315855026,-1.9257,-0.9613,0.548010753913,-2.08710323613,-0.591077174207,-0.57818848171,25.02,0.000108947820719,0.000235206720081,-5.71394425947e-06,-0.0226680207998,-0.0338844954967,0.033400952816,-0.578803300858,-0.386407613754,-0.733227014542
1586434532.51,-11.87596035,-60.9597396851,154.21635437,8.59369087219,-0.714537203312,4.58425283432,0,0,0,-2.08738997787,-0.593425628482,-0.579512485842,25.0,0.000110679564322,0.000269508233833,-1.57507585335e-05,-0.0138957072049,0.00829827040434,0.0362446568906,-0.587342023849,-0.375464200974,-0.736189842224
1586434532.77,-10.9126319885,-61.873085022,154.419555664,8.68240833282,-0.727398753166,4.42528772354,0,0,0,-2.08721906205,-0.595114304685,-0.580885542441,24.98,0.000114219399517,0.000288740018765,-3.1012934502e-05,0.194308027625,-0.0621970817447,-0.0263299830258,-0.598470449448,-0.38502573967,-0.720997095108
1586434533.03,-6.99639415741,-62.9007072449,153.658920288,8.68309402466,-0.596135556698,4.23149108887,0,0,0,-2.08572159085,-0.595707743922,-0.581728985009,24.96,0.000107226583312,0.000281975404009,-5.78499003996e-05,0.151967123151,-0.0805247798562,-0.0329855903983,-0.606493234634,-0.431469678879,-0.68089222908
1586434533.28,-7.05603265762,-64.5089416504,154.516159058,8.94558238983,-0.488146334887,4.05242919922,0,0,0,-2.08519500939,-0.59646682512,-0.583522783074,24.94,0.000118608523866,0.000285960343117,-7.60904461757e-05,-0.0413719639182,-0.119862355292,0.0519646406174,-0.626901865005,-0.440108299255,-0.656530380249
1586434533.54,-15.1247663498,-65.7317886353,159.001586914,9.07250595093,-0.994943380356,3.79329657555,0,0,0,-2.08506229175,-0.59744358533,-0.585459196314,24.92,0.000135156959529,0.000293499152167,-8.93330837052e-05,-0.434279948473,-0.13153976202,0.157711282372,-0.656829357147,-0.376576423645,-0.668808698654
1586434533.8,-25.6439685822,-68.7010269165,163.565322876,8.95912647247,-1.38287353516,3.42423057556,0,0,0,-2.08641677855,-0.600189353356,-0.583850546905,24.9,0.000110714447477,0.000314619913991,-6.14536359032e-05,-0.392135560513,-0.268544852734,0.049667660147,-0.699063777924,-0.299210548401,-0.675847530365
1586434534.06,-36.3527030945,-71.4928817749,170.929840088,9.41147899628,-1.68373477459,2.66656732559,0,0,0,-2.08848935221,-0.602234141972,-0.584242438894,24.88,0.000124666081779,0.000336229555215,-4.04799321671e-05,-0.103900969028,-0.20615722239,0.0460628531873,-0.743914604187,-0.244129180908,-0.64649105072
1586434534.32,-44.2535896301,-74.2781677246,177.201004028,9.37754058838,-1.847412467,2.05115222931,0,0,0,-2.08953372922,-0.603461497479,-0.582623672493,24.86,0.000115386481559,0.000337296877786,-2.0904111899e-05,-0.0984181016684,-0.17518556118,-0.038325060159,-0.778069496155,-0.228912830353,-0.613597393036
1586434534.58,-48.2366218567,-75.7594070435,-178.704269409,9.22175312042,-2.05233573914,1.99919617176,0,0,0,-2.0914532187,-0.602449079839,-0.577375210783,24.84,7.63290811649e-05,0.000303459668103,3.16429697391e-05,0.221264392138,-0.0676367655396,-0.0074192895554,-0.792385816574,-0.233961343765,-0.587975502014
1586434534.83,-51.3693962097,-73.8555679321,-173.370010376,9.13584041595,-2.21026730537,2.32118558884,0,0,0,-2.09614602569,-0.602376507562,-0.571192733857,24.82,3.70326226415e-05,0.000292825292124,0.000114970819276,0.0242812652141,0.0790266767144,0.272579729557,-0.804702281952,-0.220701932907,-0.57942032814
1586434535.09,-48.4352416992,-68.7370452881,-176.49041748,9.22635269165,-2.70566153526,2.56307506561,0,0,0,-2.09878950961,-0.602205308629,-0.570124278728,24.8,4.793326425e-05,0.000286986510738,0.000142313427903,0.087704397738,0.387991309166,0.171578615904,-0.780719280243,-0.169346570969,-0.635709047318
1586434535.35,-43.5636787415,-62.6221580505,179.703979492,8.72829151154,-3.26398730278,3.32752251625,-1.7737,-0.954,0.664946140824,-2.09809895674,-0.602563494278,-0.569552367881,24.78,4.52925338873e-05,0.000277766156586,0.000132936709843,0.0535240806639,0.299496948719,0.278504222631,-0.729801893234,-0.1391248703,-0.701306343079
1586434535.61,-37.101726532,-58.6025466919,176.462997437,8.45353412628,-3.21227121353,4.05551099777,0,0,0,-2.09843230441,-0.601925591477,-0.569708086356,24.76,5.57342107157e-05,0.000260254548743,0.00012987960074,0.444475948811,0.327817231417,-0.0797470211983,-0.688584804535,-0.156863451004,-0.73734498024
1586434535.86,-27.514831543,-53.5009117126,168.928131104,8.01560020447,-2.93560028076,5.0132522583,0,0,0,-2.09730499158,-0.600268104344,-0.571347002,24.73,7.30689686795e-05,0.000227477913526,0.000107402805951,-0.0461500622332,0.459312856197,-0.0229310449213,-0.599973201752,-0.212103366852,-0.797129392624
1586434536.12,-23.4907894135,-47.2994651794,162.281921387,7.28868150711,-2.65576338768,5.78298807144,0,0,0,-2.09465285733,-0.601425614766,-0.573702738043,24.71,8.35740185049e-05,0.000227059089257,6.32099620071e-05,-0.00188350887038,0.504307448864,-0.127513825893,-0.487006664276,-0.198566436768,-0.867844820023
1586434536.38,-19.3463058472,-40.7624053955,156.29977417,6.72965478897,-2.34225082397,6.8063826561,0,0,0,-2.0949433097,-0.603526980475,-0.578320703265,24.69,0.000128106984279,0.00024367143234,3.45351225637e-05,-0.0643704906106,0.520248770714,-0.0847105979919,-0.360798358917,-0.20734667778,-0.924437761307
1586434536.64,-18.6306552887,-34.4546432495,153.224716187,5.83217382431,-2.29760599136,7.57874536514,0,0,0,-2.09707263188,-0.60756231094,-0.582112258076,24.66,0.000167008678744,0.000283636854684,2.20727129829e-05,-0.0307523030788,0.481339067221,-0.0388216599822,-0.248333454132,-0.192322492599,-0.964759588242
1586434536.9,-15.6521978378,-27.1184463501,149.426300049,4.70810174942,-1.7917765379,8.46420192719,0,0,0,-2.10181020484,-0.614957728668,-0.584704623709,24.64,0.000199754269066,0.000362520745871,2.94546144752e-05,0.201444864273,0.57735222578,-0.122997738421,-0.109178781509,-0.211343765259,-0.987323045731
1586434537.16,-7.86354732513,-20.2210788727,144.178787231,3.73550653458,-1.04071187973,9.09544181824,0,0,0,-2.10583322343,-0.617988111051,-0.589093084928,24.62,0.000247918603834,0.000393238726257,2.56403820754e-05,0.539993405342,0.426712274551,-0.274923712015,0.0404813289642,-0.308187246323,-0.963277339935
1586434537.41,4.63463640213,-16.4696063995,140.347015381,3.1080520153,0.359318077564,9.39711380005,0,0,0,-2.10862929942,-0.612405961665,-0.592932259572,24.59,0.000293806815261,0.000336627846598,2.79706680699e-05,0.805136501789,0.148542821407,-0.175316005945,0.134388923645,-0.485478878021,-0.871045827866
1586434537.67,11.9851570129,-14.9793138504,139.096420288,2.51861047745,1.55538535118,9.20134353638,0,0,0,-2.10774944006,-0.607125822974,-0.593482226467,24.57,0.000291216211311,0.000278041621475,1.77135534519e-05,0.183460682631,0.05967412889,0.00306535582058,0.168440341949,-0.59060883522,-0.79790353775
1586434537.93,11.6525154114,-14.541929245,141.253555298,2.40011262894,2.04385089874,9.30814933777,0,0,0,-2.10939425033,-0.609223697047,-0.59317221537,24.54,0.000282057915281,0.000295811276885,1.83255014255e-05,-0.0600326918066,0.073153719306,0.162137523293,0.158468961716,-0.596851348877,-0.789864778519
1586434538.19,13.5323638916,-12.7567310333,142.281051636,2.48392724991,2.36993980408,9.64490699768,0,0,0,-2.11856245553,-0.609738883757,-0.594189471102,24.52,0.000327301464364,0.000314370187218,6.67152894408e-05,0.387029051781,0.192682787776,-0.0592343956232,0.171034097672,-0.625838041306,-0.768027305603
1586434538.45,20.0930080414,-8.11076450348,141.20526123,1.70011746883,3.44867968559,9.28079414368,0,0,0,-2.12571998029,-0.610243038596,-0.596474236169,24.5,0.000372546932721,0.00033023627127,8.91224362118e-05,0.451307892799,0.33730044961,-0.205113649368,0.253412008286,-0.695636034012,-0.675961732864
1586434538.7,25.5746212006,-1.51947927475,139.476425171,0.500450134277,4.3416724205,8.73035526276,0,0,0,-2.12893541111,-0.611327501225,-0.600266618387,24.48,0.000407134149149,0.000345560926299,7.19559751301e-05,0.209102466702,0.366125464439,-0.31076964736,0.369719743729,-0.738215923309,-0.5786049366
1586434538.96,25.4825935364,4.60724401474,137.550033569,-0.480427414179,3.89430713654,8.83458137512,0,0,0,-2.13244002184,-0.60528829064,-0.602733283833,24.45,0.000451676148363,0.000299966851844,7.2518204337e-05,-0.397005051374,0.241261810064,-0.237096771598,0.478664398193,-0.709686040878,-0.540501117706
1586434539.22,11.6119642258,7.36386203766,135.470062256,-1.09433293343,2.16616034508,9.29509735107,0,0,0,-2.13440143931,-0.607894456244,-0.606799889769,24.44,0.00047540820681,0.000330055975279,3.77853882174e-05,-1.01079618931,0.0796085000038,-0.192086875439,0.533285140991,-0.547260761261,-0.67883014679
1586434539.48,2.66306447983,7.47779798508,132.010513306,-0.739205420017,0.499185085297,9.55520820618,0,0,0,-2.14054615526,-0.605656065817,-0.614070122224,24.41,0.000553978504599,0.000336890590453,1.3694910455e-05,-0.180588752031,-0.102436587214,-0.222757950425,0.563013076782,-0.399554014206,-0.763616323471
1586434539.73,3.63088846207,5.34943342209,129.408966064,-0.662077665329,0.650891959667,9.89443492889,0,0,0,-2.14788500032,-0.603892037858,-0.614705235321,24.4,0.00059101351044,0.000341548045336,3.4632612761e-05,0.274644047022,-0.18092289567,-0.128616839647,0.553388834,-0.387941598892,-0.776555538177
1586434539.99,5.05720567703,2.86670207977,127.540863037,-0.230203479528,0.97119820118,9.84556007385,0,0,0,-2.15530139922,-0.60312929491,-0.616191527335,24.38,0.000629342939886,0.000357293666393,4.6699216307e-05,-0.0223066713661,-0.159560188651,-0.084148734808,0.530300140381,-0.392906904221,-0.786529541016
1586434540.25,3.06141638756,0.643066942692,126.400749207,0.193108543754,0.65835916996,9.8624420166,0,0,0,-2.16354751593,-0.602297895729,-0.618438774987,24.36,0.000674149105253,0.00037711756306,5.60147480866e-05,-0.245133891702,-0.145891368389,-0.0645294934511,0.508033275604,-0.356187343597,-0.820760011673
1586434540.51,0.441418886185,-1.1472748518,125.31628418,0.372039914131,0.0675441324711,9.78473091125,0,0,0,-2.16836098458,-0.599579819475,-0.620464066094,24.34,0.000700154144054,0.000375864474316,5.19891693772e-05,-0.105915591121,-0.109477348626,-0.0678937882185,0.488712072372,-0.309096097946,-0.851589679718
1586434540.76,-0.372872591019,-2.63952589035,124.282928467,0.356559932232,0.00933712162077,9.89249992371,0,0,0,-2.17221120235,-0.600013354986,-0.618158582033,24.32,0.000685799825654,0.000386730035665,6.52830733886e-05,-0.0584278330207,-0.0796884521842,-0.0866141319275,0.468974590302,-0.283127784729,-0.869738340378
1586434541.02,-1.26711297035,-3.1993932724,122.286056519,0.273336112499,0.0730893090367,9.99262142181,0,0,0,-2.17719677787,-0.605848351416,-0.612557497222,24.31,0.000644535578504,0.000430131943323,9.4698027736e-05,-0.0521145872772,0.0156685747206,-0.182693138719,0.472291707993,-0.253844022751,-0.879574298859
1586434541.28,-1.94462060928,-2.4580245018,118.534645081,0.493965536356,-0.179150164127,9.99092769623,0,0,0,-2.18534638291,-0.606351238699,-0.610264172974,24.29,0.000655441250214,0.000453196247515,0.000123523024253,-0.03775434196,0.0846973061562,-0.305750399828,0.504410028458,-0.207685232162,-0.876518249512
1586434541.55,-0.414790809155,-1.24196302891,113.278457642,0.306306093931,0.0643673166633,9.78279590607,0,0,0,-2.19098639714,-0.606110378906,-0.611437441321,24.27,0.000669506393102,0.000473619099812,0.000119168024488,0.19150313735,0.0888236537576,-0.389287739992,0.549870014191,-0.178863763809,-0.858778715134
1586434541.81,0.547785639763,0.070600040257,107.626678467,0.251345694065,0.117007106543,9.7746181488,0,0,0,-2.19742030416,-0.601688639179,-0.614375878932,24.26,0.000709446508843,0.000477070268373,0.000113231756894,-0.0234276205301,0.0955684781075,-0.364561289549,0.592850446701,-0.13717341423,-0.842191696167
1586434542.06,-1.26080656052,1.50973308086,102.295829773,0.0693806186318,-0.239935353398,9.82174301147,0,0,0,-2.20467931709,-0.594985094304,-0.617057343381,24.25,0.000759390320187,0.000473322722662,0.000115271382087,-0.212037310004,0.0863446295261,-0.313985139132,0.627354860306,-0.0540482997894,-0.830743789673
1586434542.32,-4.14106273651,2.79864025116,97.873336792,-0.249184787273,-0.745660543442,9.85785961151,0,0,0,-2.21118206953,-0.588252968651,-0.617502080748,24.24,0.000794523771916,0.000467451937624,0.000127680461694,-0.0899602100253,0.131993234158,-0.259720653296,0.654840707779,0.0338249206543,-0.817805528641
1586434542.59,-3.78713512421,4.83930206299,94.3434677124,-0.650073766708,-0.590182065964,9.6737537384,0,0,0,-2.21590990962,-0.583538793502,-0.620508266441,24.22,0.000821780186187,0.000475958403547,0.000114748464575,0.154697045684,0.15416431427,-0.194465443492,0.686745882034,0.0687658786774,-0.79265499115
1586434542.84,-1.38306260109,6.28766489029,92.0103302002,-0.924645721912,-0.290122389793,9.60927677155,0,0,0,-2.21787076377,-0.576807178118,-0.624178141857,24.21,0.000844868530469,0.00046743772201,9.26658144162e-05,0.153822645545,0.0623835362494,-0.126316785812,0.710710287094,0.0625383853912,-0.772168636322
1586434543.1,0.866416394711,6.16262102127,90.6099243164,-0.873606920242,0.102499641478,9.84042930603,0,0,0,-2.22313075157,-0.569294650144,-0.623511792633,24.19,0.000872660566115,0.000460372545008,0.000105716579385,0.169337049127,-0.057064384222,-0.0632744506001,0.703914880753,0.0512471199036,-0.777324438095
1586434543.35,2.25051259995,4.95743227005,90.067855835,-1.16786789894,0.0683748275042,10.0314979553,0,0,0,-2.21963147936,-0.563025933408,-0.613170498297,24.19,0.000822692099241,0.000411125834317,0.000146471855213,-0.178830370307,-0.0771694108844,0.0045591974631,0.686112880707,0.0372240543365,-0.795469522476
1586434543.61,-3.30933713913,4.06424093246,90.5500488281,-0.793821811676,-0.468698322773,10.0618286133,-0.5431,-2.2489,0.6699010301,-2.19923868496,-0.588763601321,-0.60617418087,24.18,0.000622210336021,0.000451616417113,9.72228190305e-05,-0.195140093565,-0.0619828887284,0.00201184372418,0.66632604599,0.115252733231,-0.808033943176
1586434543.87,-1.33489608765,3.06185436249,90.1110839844,-0.494197279215,-0.276214569807,9.98901081085,0,0,0,-2.20368454856,-0.583984372413,-0.601638122316,24.16,0.000626794530692,0.000444029483815,0.000126854414856,0.0988658666611,-0.0565633252263,-0.0287108179182,0.645672559738,0.095196723938,-0.815752983093
1586434544.12,-3.52969741821,3.00657939911,90.6547622681,-0.393981635571,-0.443832159042,9.90574169159,0,0,0,-2.21196044575,-0.581846028784,-0.599732149286,24.15,0.000645563509412,0.000468676585967,0.000145968911096,-0.209740236402,0.0405440181494,0.0870185121894,0.63779592514,0.111575365067,-0.807084798813
1586434544.38,-2.59025716782,4.12169027328,92.1081848145,-0.513764739037,-0.183286085725,9.83248615265,0,0,0,-2.22249199274,-0.580321180979,-0.600044209582,24.14,0.000675491604317,0.000508995099881,0.0001542157828,0.293370693922,0.0571957156062,0.111162535846,0.650215148926,0.0754201412201,-0.789680957794
1586434544.64,3.53376054764,4.13705873489,93.4916915894,-0.713450670242,0.784189641476,9.59668159485,0,0,0,-2.22671346171,-0.58087302498,-0.603312501413,24.13,0.000674539728158,0.000537319968568,0.000127009223208,0.459507346153,-0.0660170540214,0.0537908226252,0.657874107361,-0.0341222286224,-0.787954568863
1586434544.89,6.56685304642,2.43488454819,93.3152236938,-0.305329114199,1.38306677341,9.79678630829,0,0,0,-2.23716165318,-0.580584404933,-0.602206801518,24.12,0.000692096667997,0.000578348054887,0.000135640236951,0.0371215939522,-0.130474582314,-0.0575009845197,0.645825862885,-0.0889008045197,-0.801027297974
1586434545.16,7.69838666916,1.04251420498,91.486076355,-0.0854655653238,1.3082433939,10.0765972137,0,0,0,-2.24596511231,-0.574739630478,-0.59267152288,24.1,0.000706791950501,0.000577084443013,0.000191251452675,0.101004384458,-0.0950210019946,-0.105304285884,0.624518632889,-0.0866937637329,-0.818688392639
1586434545.42,9.40141391754,0.704179108143,89.9218215942,-0.126409828663,1.42248082161,9.98261451721,0,0,0,-2.24898972937,-0.567464926461,-0.582682696389,24.09,0.000705775375462,0.000548204523849,0.000239015823549,0.0941978767514,0.0300841405988,-0.0770017504692,0.626516342163,-0.0961930751801,-0.820860862732
1586434545.69,10.6687984467,1.88973534107,89.169380188,-0.403431624174,1.67613816261,9.83833026886,0,0,0,-2.2504138011,-0.56257575713,-0.574137138839,24.08,0.000692931484464,0.000525738042429,0.000270725781263,0.0552486665547,0.0973798409104,-0.0474205240607,0.646094083786,-0.102742910385,-0.804905414581
1586434545.94,11.3279886246,3.8582367897,88.9028015137,-0.5928581357,1.86470723152,9.79152584076,0,0,0,-2.25518512499,-0.556384517847,-0.566988965603,24.07,0.000703662261394,0.000516185574779,0.000301148660443,0.0326788052917,0.162494406104,-0.0478256605566,0.674990415573,-0.108644247055,-0.784296989441
1586434546.2,12.2495527267,6.87038946152,88.3216934204,-0.957191646099,2.01479315758,9.5916261673,0,0,0,-2.26043045568,-0.547040026456,-0.564347751046,24.06,0.00073842482909,0.000507693792444,0.000312383633665,0.0302052181214,0.203555330634,-0.10893458128,0.720461845398,-0.107112407684,-0.746133804321
1586434546.45,9.83406448364,9.95066547394,87.2873001099,-1.4875446558,1.63626003265,9.38295078278,0,0,0,-2.2637959384,-0.538132931334,-0.567848362516,24.05,0.000771913623577,0.000505380046684,0.000289637553605,-0.233668193221,0.152686476707,-0.0890482589602,0.766915798187,-0.0562376976013,-0.717842102051
1586434546.71,8.26753997803,11.4679574966,86.6051254272,-1.81776511669,1.2378102541,9.52373027802,-0.4249,-2.177,0.50143479472,-2.22034812029,-0.567087954949,-0.565084380609,24.04,0.000540945628229,0.000426296870009,0.000216927217227,0.0224759839475,0.0589704215527,-0.0299111064523,0.7867436409,-0.0228788852692,-0.704600334167
1586434546.97,8.50948238373,12.8114070892,86.6605834961,-2.14645385742,1.47080898285,9.55261611938,0,0,0,-2.22526013633,-0.56456869685,-0.560649345123,24.03,0.000545703942481,0.000434782095681,0.000230771729114,0.018292112276,0.12755972147,-0.044398393482,0.799915552139,-0.0213694572449,-0.689347743988
1586434547.23,8.84835243225,14.4924354553,86.1910018921,-2.17403101921,1.73660445213,9.34400558472,0,0,0,-2.23783418087,-0.559744810139,-0.562420589851,24.02,0.000590928240466,0.000478733605272,0.000223422527524,0.119243748486,0.0617036670446,-0.0576134808362,0.820834636688,-0.0158574581146,-0.662842750549
1586434547.49,11.1060733795,14.2916326523,85.3575820923,-2.3154759407,1.78460013866,9.26373004913,0,0,0,-2.23972361988,-0.552928116954,-0.563109339345,24.01,0.000607984842296,0.000471282737783,0.000212642220534,0.0792415887117,-0.0749957039952,-0.0247564204037,0.819364309311,-0.0346281528473,-0.663452625275
1586434547.74,11.1079778671,12.3353796005,84.9249801636,-1.95949101448,1.84774506092,9.27324008942,0,0,0,-2.24254402999,-0.546061062095,-0.566507508896,24.01,0.000629918092426,0.00047162208396,0.000191193236898,-0.0212840791792,-0.146918386221,-0.00688396533951,0.794672966003,-0.0371911525726,-0.690600395203
1586434548.0,10.7726049423,10.1502532959,84.5303039551,-1.5811508894,1.84419298172,9.47216033936,0,0,0,-2.24784514887,-0.539209789514,-0.566253306651,24.0,0.000653870335642,0.00047788386823,0.000188322794974,-0.0161238014698,-0.160883024335,-0.00433959066868,0.767348051071,-0.0346477031708,-0.717254638672
1586434548.25,10.5895576477,8.39544200897,83.4935760498,-1.19823896885,1.60557687283,9.6413898468,0,0,0,-2.24909160845,-0.525543215773,-0.562740536392,23.99,0.000691882650027,0.000448946412583,0.000204529201098,-0.0447627194226,-0.0892244428396,-0.0430982671678,0.74343752861,-0.0256266593933,-0.741606235504
1586434548.51,10.1430311203,6.82594060898,82.7576522827,-1.19725286961,1.52764093876,9.61593151093,0,0,0,-2.24556015179,-0.519025185642,-0.559639050054,23.99,0.000686621210197,0.000418249283439,0.000208623400163,0.0498266927898,-0.154003158212,-0.0406675040722,0.722841501236,-0.0151107311249,-0.763662576675
1586434548.77,7.43837738037,4.72821521759,82.7476501465,-0.713677585125,1.38444912434,9.89578342438,0,0,0,-2.25455115891,-0.5142512379,-0.551223395027,23.98,0.000702358651407,0.000437192450287,0.000240546333529,-0.323498100042,-0.141339451075,0.0680493563414,0.691762924194,0.0186450481415,-0.790928125381
1586434549.03,5.54103326797,2.57571196556,84.2675552368,-0.574434876442,0.888290166855,9.91987514496,0,0,0,-2.2550588956,-0.51319099212,-0.542282937705,23.97,0.000680364321439,0.000427223153206,0.000266852796923,-0.00864155683666,-0.101580113173,0.166618660092,0.662373542786,0.027369260788,-0.815967798233
1586434549.28,8.7566242218,1.22234785557,86.4597320557,-0.408013015985,1.31030654907,9.90832042694,0,0,0,-2.2511798442,-0.51255322046,-0.530613343379,23.96,0.000647459520046,0.000396573530051,0.000301477510457,0.227858409286,-0.0447489470243,0.15457482636,0.644582986832,-0.0410270690918,-0.824775457382
1586434549.54,8.90174674988,0.916567742825,88.4590682983,-0.233437091112,1.51544749737,9.82539463043,0,0,0,-2.2540230531,-0.511501390568,-0.522575332082,23.96,0.000634768618258,0.000395754341321,0.000322873486446,0.0527737736702,0.0238107573241,0.0919157713652,0.635269880295,-0.0688598155975,-0.825036525726
1586434549.79,10.9262695312,1.23651301861,88.956993103,0.0205748099834,1.80268263817,9.82084274292,0,0,0,-2.25937805754,-0.499351286327,-0.514205250058,23.95,0.000673439530659,0.000386111283788,0.00035392421507,0.0635689049959,0.0226641129702,-0.0151265412569,0.642284631729,-0.101378440857,-0.817159891129
1586434550.05,7.55008506775,1.51097941399,88.8552780151,-0.0374381579459,1.26134371758,9.76445484161,-0.2165,-2.2214,0.715486011438,-2.18167467292,-0.550424182685,-0.524803137672,23.94,0.000386914849461,0.000220355107964,0.000266096377238,-0.358181834221,0.0136159444228,0.011616951786,0.646560192108,-0.0516593456268,-0.823080062866
1586434550.31,4.32368040085,1.17114090919,89.7903671265,0.0666955560446,0.842436134815,9.63733768463,0,0,0,-2.18895020816,-0.540872487485,-0.530852059092,23.93,0.000430151670357,0.000237616160395,0.000242783466284,-0.0884596332908,-0.0528682135046,0.0977596193552,0.641274452209,-0.0147833824158,-0.831461906433
1586434550.57,5.13256931305,-1.12293660641,91.3874664307,0.132267683744,1.05341434479,9.6774187088,0,0,0,-2.19560244469,-0.543632530062,-0.532946878847,23.93,0.000420381072136,0.000266095191923,0.000226865754685,0.154721945524,-0.222632005811,0.141784787178,0.60728430748,-0.0446829795837,-0.850024700165
1586434550.82,7.34048366547,-4.77770805359,93.5014419556,0.65438169241,1.36406970024,9.80041980743,0,0,0,-2.20090102092,-0.549469863159,-0.526453521371,23.92,0.000393958072405,0.000284072061009,0.000242411172708,0.200213059783,-0.224809080362,0.155679062009,0.547618865967,-0.0993576049805,-0.881963968277
1586434551.08,8.58353233337,-7.15688848495,94.3494110107,1.12901830673,1.55808222294,9.92494297028,0,0,0,-2.20872029159,-0.55314242094,-0.511931135195,23.92,0.000379119775979,0.000300046778793,0.000289756472998,-0.0408418551087,-0.0506125502288,0.0164648517966,0.507539272308,-0.132890939713,-0.895153284073
1586434551.34,8.92443847656,-7.11385059357,93.6602783203,1.06818389893,1.44499337673,9.76725959778,0,0,0,-2.20822171046,-0.555994176178,-0.503022819828,23.91,0.0003549267796,0.000288634967568,0.000313439232879,0.080522723496,0.00726524740458,-0.0502348020673,0.509133577347,-0.135152816772,-0.899538993835
1586434551.6,9.5482673645,-6.78155231476,93.5408248901,1.33047139645,1.6733944416,9.76041507721,0,0,0,-2.21644167775,-0.548861317616,-0.495622129688,23.9,0.000383588715598,0.000297693414026,0.000337906685739,0.0923862606287,0.0168694145977,-0.00987797882408,0.51390171051,-0.143175601959,-0.892796039581
1586434551.86,12.2780714035,-6.42915821075,93.5886230469,1.12034082413,1.90148115158,9.62750434875,0,0,0,-2.21319454412,-0.543542512851,-0.489116030757,23.9,0.000387004348949,0.000269030675778,0.000354444711171,0.156716838479,0.0448288396001,0.0425392761827,0.519568681717,-0.18839263916,-0.882755756378
1586434552.11,13.2003717422,-6.20815992355,94.7432098389,1.12581837177,2.28590750694,9.59910202026,0,0,0,-2.21980272089,-0.540448853471,-0.482659734105,23.89,0.000397939903542,0.000278345818777,0.000370783955814,0.0499585680664,0.00664759473875,0.0889977365732,0.521282911301,-0.212371349335,-0.87223649025
1586434552.37,12.9400615692,-6.57548236847,95.6856613159,1.23088550568,2.33023381233,9.67027854919,0,0,0,-2.2315980288,-0.537148500285,-0.473064234262,23.88,0.000416267121823,0.00030231597241,0.000398176840073,0.0450596250594,0.0210732221603,0.0318050384521,0.516139984131,-0.223206043243,-0.874034404755
1586434552.63,16.1887207031,-5.67600536346,96.0621566772,0.684633910656,2.44176959991,9.28968429565,0,0,0,-2.21777318118,-0.542748000593,-0.472970925273,23.88,0.00036759428639,0.000255387412878,0.000383786462992,0.316915661097,0.0476139001548,0.034104116261,0.528350114822,-0.269910573959,-0.852224826813
1586434552.89,16.5120544434,-5.9669752121,96.6924514771,1.26409077644,2.98093748093,9.39044761658,0,0,0,-2.23301384998,-0.534365094701,-0.47027379939,23.87,0.000409015493057,0.000290114191153,0.000388833750052,-0.113381445408,-0.0360839031637,0.0173280015588,0.523635387421,-0.286915302277,-0.845726966858
1586434553.15,13.7084102631,-6.76397895813,96.6846313477,1.05719256401,2.4257774353,9.58719730377,0,0,0,-2.24097521222,-0.539449981627,-0.461523465637,23.87,0.000392576034601,0.000309067948292,0.000408102997931,-0.255772560835,-0.0347986891866,0.0386050082743,0.509083747864,-0.247875928879,-0.865391016006
1586434553.41,9.96866512299,-7.08713817596,96.9470672607,1.04920077324,1.75218307972,9.84815216064,0,0,0,-2.24737850562,-0.547054285817,-0.445279791708,23.87,0.000365523537849,0.000319194504395,0.000450399842367,-0.257286518812,0.00055860739667,0.0195561032742,0.503020763397,-0.19480919838,-0.88648891449
1586434553.66,8.05760955811,-6.45089673996,97.5417861938,1.06649041176,1.48406350613,9.75003433228,0,0,0,-2.25646636794,-0.549515168971,-0.437722874781,23.86,0.000359604204208,0.000338604123623,0.000465766885068,0.00555645674467,0.049710098654,0.0476067885756,0.513359308243,-0.170320510864,-0.89062833786
1586434553.93,9.2481136322,-6.06677484512,97.7673187256,0.99353659153,1.62407886982,9.72000694275,0,0,0,-2.26274649613,-0.551385708915,-0.43007062154,23.86,0.000352274326425,0.000347675477405,0.000480246549115,0.0903347432613,0.0318272076547,-0.0125754624605,0.521198749542,-0.18904042244,-0.879952192307
1586434554.18,9.06388187408,-6.00804376602,97.3294296265,1.04470872879,1.62567353249,9.81820869446,0,0,0,-2.27241926312,-0.551272484217,-0.417562891773,23.86,0.000355624675878,0.000362107815843,0.000510359029569,-0.0594440959394,-0.0253375656903,-0.0422109030187,0.512539148331,-0.184198617935,-0.881266355515
1586434554.44,5.50467443466,-6.13177061081,96.9140701294,1.0643260479,0.862384498119,9.86886978149,0,0,0,-2.27388575574,-0.548047591066,-0.405698261684,23.85,0.000358475864701,0.000349027246221,0.000536986967266,-0.376673281193,0.00500064622611,0.000719167815987,0.517534971237,-0.125584363937,-0.896556615829
1586434554.7,-0.687527000904,-6.05552005768,97.2729873657,1.0117650032,-0.085555523634,9.82860565186,0,0,0,-2.27938215323,-0.548010566768,-0.398585803341,23.85,0.000354489928055,0.000354140630338,0.00054870080282,-0.433986961842,0.00934396591038,0.0456100665033,0.516679763794,-0.0312304496765,-0.911951780319
1586434554.96,-3.47942209244,-5.55558013916,98.1479873657,1.18786501884,-0.688238501549,9.66055107117,0.4766,-2.596,0.753143169935,-2.04894905133,-0.6850831705,-0.445767405687,23.85,-0.000143360890006,-5.70891723806e-05,0.000389677766867,-0.0225722808391,0.0553080849349,0.0928154140711,0.525645971298,0.00658273696899,-0.910029649734
1586434555.22,-3.75658917427,-5.06286001205,99.9971237183,1.04648768902,-0.574319958687,9.62038040161,0,0,0,-2.05306895846,-0.678551775869,-0.451240144711,23.84,-0.000114011071383,-4.54695711828e-05,0.000368383507483,0.0184064693749,-0.00616721855476,0.140087500215,0.527010917664,-0.00736379623413,-0.905589103699
1586434555.47,-0.136833801866,-5.19511079788,101.770492554,0.875056743622,-0.0667688921094,9.7097902298,0,0,0,-2.04974517425,-0.679861378216,-0.452320155451,23.84,-0.000116461733233,-5.22423534324e-05,0.000358275167113,0.377670705318,-0.015129160136,0.107903309166,0.52388715744,-0.081506729126,-0.901878833771
1586434555.73,2.27001738548,-5.23152780533,103.393890381,0.748631298542,0.304917216301,9.79837226868,0,0,0,-2.04324042228,-0.687596726515,-0.447687530423,23.84,-0.000140632899863,-6.60206704609e-05,0.000363504162341,-0.0241041239351,0.0132014993578,0.109910428524,0.517248153687,-0.139998197556,-0.893815755844
1586434555.99,-2.68596434593,-4.68512105942,105.508163452,0.59492534399,-0.417259335518,9.95666408539,0,0,0,-2.0432779704,-0.700988041949,-0.434390655168,23.83,-0.000174295372647,-6.05090938689e-05,0.000392761054268,-0.517229259014,0.0561020039022,0.175094246864,0.518253326416,-0.0895552635193,-0.902579784393
1586434556.24,-6.35926771164,-3.81045675278,107.227561951,0.7493724823,-0.951784193516,9.76793861389,0,0,0,-2.05128490913,-0.699710327391,-0.430523998741,23.83,-0.000157776080666,-3.86988843524e-05,0.000398157628131,0.0105043891817,0.0415546856821,0.0658439546824,0.526859998703,-0.0422787666321,-0.904525995255
1586434556.5,-3.65926575661,-3.78813481331,107.592483521,0.103810407221,-0.775543928146,10.1075382233,0,0,0,-2.0370877542,-0.728799744472,-0.406026755945,23.83,-0.000248071122069,-6.59663466309e-05,0.000451808946699,0.099229618907,-0.0196404773742,0.01339931041,0.534097909927,-0.0908465385437,-0.901636838913
1586434556.76,-7.73581171036,-2.92728805542,108.145149231,-0.278573095798,-1.02558910847,10.0111188889,0,0,0,-2.04283512466,-0.779448776821,-0.383597564995,23.83,-0.000377288928216,-2.02714741779e-05,0.000497330680208,-0.28680613637,0.118887275457,0.0605123378336,0.5445561409,-0.033136844635,-0.901867389679
1586434557.01,-8.36177539825,-1.13796663284,107.6772995,0.174378156662,-1.36464130878,10.0725460052,0,0,0,-2.04803509803,-0.785051609832,-0.358069586511,23.82,-0.000379678782534,-1.15677575315e-05,0.000556608790709,0.011693129316,0.129229411483,-0.0216547418386,0.569419622421,-0.021632194519,-0.887419939041
1586434557.27,-6.36015892029,0.224441453815,107.385665894,0.975904226303,-1.16138339043,9.6230802536,0,0,0,-2.05790113239,-0.728190748196,-0.36563102744,23.82,-0.000208976269578,-2.13755825553e-05,0.00053785675991,0.294089615345,-0.00299699697644,0.00549014890566,0.585319757462,-0.0479915142059,-0.867155313492
1586434557.53,-1.74199318886,-0.220467597246,108.007637024,0.320580273867,-0.404770255089,9.75644207001,0,0,0,-2.05500755919,-0.71166604969,-0.365960939026,23.82,-0.00016138699408,-3.83682551657e-05,0.000530179390665,0.24024797976,-0.01217835024,0.0642536431551,0.576171875,-0.12243103981,-0.860277414322
1586434557.78,0.716950237751,-0.145758673549,109.397758484,-0.542557120323,0.155129671097,9.83684921265,0,0,0,-2.04660715477,-0.74788123571,-0.359111994318,23.82,-0.000257689920261,-3.41429592641e-05,0.000532502707634,0.138353034854,0.0276794694364,0.120126672089,0.57568025589,-0.174563884735,-0.850949525833
1586434558.04,4.72719192505,0.988313674927,111.00983429,-0.0230972878635,0.849940001965,9.67243289948,0.6408,-2.5125,0.781881527735,-1.73802927563,-0.927711937453,-0.427458169643,23.81,-0.000777161224571,-0.00047489304219,0.000351384501122,0.342659145594,0.0950076133013,0.0914779230952,0.586279630661,-0.247298240662,-0.820363998413
1586434558.3,5.74077224731,1.20605480671,112.087234497,0.0855462774634,0.763099431992,9.57908821106,0,0,0,-1.72297578988,-0.913356904744,-0.436554449471,23.81,-0.000732152627371,-0.000506959612826,0.000325421409038,-0.138707116246,-0.0414181575179,0.0508612133563,0.581334114075,-0.275970458984,-0.807803630829
1586434558.56,2.78432869911,0.0961857661605,112.073883057,0.0678794085979,0.334694176912,9.84434127808,0,0,0,-1.71006465953,-0.911218643892,-0.432126394789,23.8,-0.000718927694755,-0.000528939744981,0.000332732811199,-0.222358196974,-0.0913460105658,-0.0161193404347,0.565720319748,-0.235179424286,-0.833573102951
1586434558.82,-0.138455674052,-1.60920882225,111.703231812,0.170223042369,0.0163274649531,9.98531341553,0,0,0,-1.70479567009,-0.922944636485,-0.419480034518,23.8,-0.000734917396408,-0.000523749256233,0.000359001661412,-0.117518402636,-0.14076718688,-0.0147927571088,0.542012929916,-0.18842124939,-0.867275476456
1586434559.08,-0.315274864435,-4.12316131592,111.579772949,0.607886612415,-0.0701184272766,10.0023841858,0,0,0,-1.69689475643,-0.933375164417,-0.403589764347,23.8,-0.000749772974161,-0.000527520325839,0.000391639019161,0.047629904002,-0.177203163505,0.00323113100603,0.504882335663,-0.183800935745,-0.888088941574
1586434559.33,0.0694923102856,-6.60528993607,111.854522705,1.2094578743,-0.000763352727517,9.98254203796,0,0,0,-1.69246406771,-0.933677889784,-0.386172620415,23.79,-0.000736147039641,-0.000530422973583,0.000427949291425,0.0188322793692,-0.154001295567,0.0319903790951,0.464719772339,-0.194025039673,-0.905677080154
1586434559.59,0.0743725076318,-8.45108699799,112.285667419,1.34279239178,0.117102578282,9.87650775909,0,0,0,-1.69123455787,-0.946785613801,-0.372144950408,23.78,-0.000751269729328,-0.000514938694128,0.000453278046374,0.028053490445,-0.0780396237969,0.0206196680665,0.432311534882,-0.199620723724,-0.923068284988
1586434559.86,1.6144824028,-8.74629688263,112.210914612,1.48009490967,0.253890693188,9.80067062378,0,0,0,-1.68387176771,-0.952566866356,-0.361566172603,23.78,-0.000752860693711,-0.000518487171811,0.00046956399019,0.100823678076,0.0172587111592,-0.00360831688158,0.425276279449,-0.223164558411,-0.917187213898
1586434560.11,1.33922874928,-8.60707378387,112.248939514,1.4623272419,0.173337891698,9.73573303223,0,0,0,-1.67413312136,-0.957148901077,-0.355179215849,23.77,-0.000753796000566,-0.000527092851791,0.000475201576283,-0.1054283306,0.00791978091002,0.0137349599972,0.426381826401,-0.222672700882,-0.915501117706
1586434560.37,-1.75257205963,-8.25527667999,112.603759766,1.34268963337,-0.266530483961,9.80293464661,0,0,0,-1.66861729282,-0.967007698146,-0.344710364775,23.77,-0.000764114966446,-0.000522769346774,0.000489718270131,-0.257808029652,0.0400627218187,0.0355953462422,0.428367853165,-0.177788257599,-0.928669691086
1586434560.62,-6.16458511353,-7.3383936882,113.206764221,1.29516375065,-0.952645301819,9.88009166718,0,0,0,-1.6698764961,-0.971061233024,-0.327144764846,23.77,-0.0007564218145,-0.000508779235613,0.00052124041975,-0.30308008194,0.0793097987771,0.0628540664911,0.441210508347,-0.110180854797,-0.933805465698
1586434560.88,-4.40239238739,-5.90955495834,113.220840454,1.06797814369,-0.832997381687,9.99959754944,0,0,0,-1.66079220039,-0.97039195785,-0.304165874552,23.77,-0.000746316187263,-0.000523385593617,0.000563918898099,0.454001039267,0.090066626668,-0.0464231260121,0.466992616653,-0.134719610214,-0.922692060471
1586434561.14,1.98556804657,-4.59824609756,112.494483948,0.767358958721,0.0712460577488,9.94336414337,1.0802,-2.4782,0.726386767845,-1.23932801558,-1.17529447306,-0.365200814527,23.76,-0.00128410245916,-0.00105348578723,0.000421622575709,0.325681239367,0.081550180912,-0.055743034929,0.489648342133,-0.234102964401,-0.885204553604
1586434561.39,3.34905791283,-3.35397291183,111.663414001,0.6818805933,0.482179909945,9.8284444809,0,0,0,-1.22279773953,-1.17596898792,-0.359401948081,23.76,-0.00126798234981,-0.0010664827798,0.000429199094895,-0.0685617402196,0.0820314511657,-0.0624239444733,0.510712623596,-0.24849820137,-0.866457462311
1586434561.65,2.1773519516,-2.2604932785,110.590774536,0.438480168581,0.367516905069,9.77656269073,0,0,0,-1.20964672369,-1.1815054104,-0.358259373337,23.76,-0.00126020681684,-0.00106682937284,0.000426045743236,0.0662149861455,0.0558951944113,-0.0972747802734,0.529889583588,-0.220024824142,-0.864293336868
1586434561.91,3.70759916306,-1.22307574749,108.851478577,0.19558532536,0.41590282321,9.79908370972,0,0,0,-1.18281806338,-1.18735087236,-0.354281965562,23.75,-0.00126256580599,-0.00109890106072,0.000428202819164,0.0136947287247,0.0892622470856,-0.130307331681,0.55660867691,-0.225246191025,-0.84760761261
1586434562.17,0.546533823013,0.758365988731,107.220146179,-0.0381742194295,0.0926524996758,9.88423633575,0,0,0,-1.17133736725,-1.19109388209,-0.347818610912,23.75,-0.00124837707049,-0.00109903720611,0.000438777744201,-0.320286095142,0.14636208117,-0.101543650031,0.590098381042,-0.165309906006,-0.842291116714
1586434562.42,-5.52642631531,3.03947663307,105.793182373,-0.478363960981,-0.675025999546,9.8162984848,0,0,0,-1.17520231199,-1.20317948161,-0.342915329255,23.75,-0.00124106184607,-0.00105920165474,0.000446424267053,-0.349462628365,0.157900825143,-0.0776887387037,0.629405498505,-0.0607359409332,-0.839545249939
1586434562.68,-6.19971942902,4.96716880798,104.335731506,-0.773689329624,-0.928209543228,9.72002792358,0,0,0,-1.17141916798,-1.2107997036,-0.341312677463,23.75,-0.00122905178133,-0.0010398399553,0.000445928055808,0.156373783946,0.132250279188,-0.0758756324649,0.657293319702,-0.0350012779236,-0.8189265728
1586434562.94,-5.72445821762,6.97775936127,103.708244324,-1.01821696758,-0.825308918953,9.62724876404,0,0,0,-1.17048125037,-1.21306643763,-0.344751828185,23.74,-0.00120221625845,-0.00101704451035,0.00043598945009,-0.0463005267084,0.137810975313,-0.00409111427143,0.685687065125,-0.0386595726013,-0.798881053925
1586434563.2,-4.83807897568,8.21585655212,103.192527771,-1.08654487133,-0.74390745163,9.7405500412,0,0,0,-1.1691330153,-1.20454042152,-0.340085459107,23.74,-0.00115335950498,-0.00100517303193,0.000445574196205,0.049476146698,0.0641884356737,-0.0679310634732,0.705789804459,-0.0463526248932,-0.781255483627
1586434563.46,-1.58966577053,8.30182743073,100.775733948,-1.34520173073,-0.259709864855,9.95799160004,0,0,0,-1.15999274631,-1.21032115087,-0.322131207299,23.73,-0.00114140610711,-0.00100468148835,0.000482794672177,0.448951393366,-0.0223230794072,-0.203178286552,0.710460424423,-0.0593945980072,-0.768993139267
1586434563.71,4.03359508514,8.06749725342,97.7755813599,-1.43562448025,0.524478077888,9.84243583679,0,0,0,-1.13708648198,-1.22183519998,-0.310318970592,23.73,-0.00115015309654,-0.00102953915278,0.000505639444172,0.228281572461,-0.000775233202148,-0.165283352137,0.715012311935,-0.105675935745,-0.757875442505
1586434563.97,2.14822387695,9.00881481171,96.1568984985,-1.61066353321,0.44822999835,9.73630142212,0,0,0,-1.12957988558,-1.23997228178,-0.306305251101,23.73,-0.00116108873572,-0.0010168745943,0.000512411417475,-0.262739241123,0.0992454960942,-0.0882067158818,0.726210832596,-0.0657634735107,-0.753684997559
1586434564.23,-0.0376062355936,10.3706665039,94.5672531128,-1.92273497581,0.190786898136,9.60740852356,0,0,0,-1.1275898029,-1.26699355328,-0.309212080673,23.72,-0.00118487034142,-0.000986681682745,0.000503926552347,0.0383252352476,0.0801170319319,-0.118995852768,0.750165224075,-0.017632484436,-0.740325450897
1586434564.49,2.01957035065,11.6613388062,92.6515960693,-1.94954276085,0.421406239271,9.38739204407,0,0,0,-1.12198094986,-1.27930242939,-0.324851581812,23.72,-0.00117979639957,-0.000972629864569,0.000470650767397,0.192046031356,0.0853808671236,-0.134138807654,0.769789457321,-0.0220036506653,-0.718838691711
1586434564.75,2.97341227531,12.1301174164,91.1254882812,-1.83900165558,0.543107390404,9.44453620911,0,0,0,-1.11850508605,-1.27790902986,-0.335366766716,23.72,-0.00114489280827,-0.000964267884196,0.00045017795978,-0.0618003308773,-0.0219516474754,-0.0568512827158,0.780870676041,-0.0153555870056,-0.711923837662
1586434565.0,1.80835771561,10.5073041916,89.7778015137,-1.60610318184,0.361610025167,9.46086597443,0,0,0,-1.11565293284,-1.27902285304,-0.348932511833,23.71,-0.00111620508903,-0.000953916131845,0.000422403692043,-0.0297099407762,-0.190361976624,-0.0876229479909,0.760731697083,0.0178215503693,-0.727863311768
1586434565.26,1.5678280592,5.96237850189,87.7180404663,-0.650341808796,0.0933337956667,9.85008335114,0,0,0,-1.10158729131,-1.26164873551,-0.340270753076,23.71,-0.00105779782525,-0.00098042828051,0.000438461067538,-0.0060726008378,-0.377689242363,-0.158483281732,0.703222513199,0.0441038608551,-0.781771659851
1586434565.52,-0.447358369827,0.332588374615,84.811164856,-0.108860515058,0.0642409473658,10.1767063141,0,0,0,-1.10271938428,-1.28158091173,-0.31022250276,23.71,-0.00106451081516,-0.000960254397891,0.000493206802363,-0.0981290563941,-0.322324991226,-0.222692802548,0.619641542435,0.107641220093,-0.840152978897
1586434565.78,3.28623175621,-3.25549983978,81.4899368286,0.370621949434,0.839749515057,10.1364431381,0,0,0,-1.11267129053,-1.31507832189,-0.281026488784,23.7,-0.00109245993237,-0.000918737411208,0.000545730374677,0.535483241081,-0.198617562652,-0.274881452322,0.558706521988,0.0990631580353,-0.878153562546
1586434566.04,12.2939863205,-4.72741746902,77.7162857056,0.802492260933,1.8227314949,9.75892925262,0,0,0,-1.08666250023,-1.32575564264,-0.262705937521,23.7,-0.00109329776179,-0.00096055024423,0.000578287758077,0.436427891254,-0.117892891169,-0.215577587485,0.521725893021,0.00166487693787,-0.892995357513
1586434566.3,12.4077119827,-6.19581890106,74.946105957,0.89116024971,2.08454251289,9.61278629303,1.591,-2.2834,0.476660348341,-0.536739260323,-1.53422802508,-0.309825114856,23.69,-0.00153198789638,-0.00155634062459,0.000506613066151,-0.232672765851,-0.115698978305,-0.12423324585,0.485600233078,0.0288922786713,-0.903255939484
1586434566.56,8.60734939575,-6.98344516754,73.1786117554,0.8723539114,1.38204109669,9.56154918671,0,0,0,-0.516046946912,-1.57562285265,-0.312734946391,23.69,-0.00157718688941,-0.00156692164423,0.000496572457964,-0.317568510771,-0.0675786659122,-0.105042800307,0.458776712418,0.11048913002,-0.903275728226
1586434566.82,4.53260660172,-8.07308292389,71.8829803467,1.33179914951,0.556670367718,9.48547840118,0,0,0,-0.491359506792,-1.59887230699,-0.321864185117,23.68,-0.00158442754944,-0.00159528285627,0.000469907790329,-0.17651283741,-0.104746244848,-0.0381264872849,0.437490224838,0.195107698441,-0.895968914032
1586434567.08,3.52036809921,-9.90053653717,72.3145904541,1.43013954163,0.371566236019,9.71585941315,0,0,0,-0.462770241584,-1.63566343268,-0.312904137316,23.67,-0.00162095603521,-0.00162687990413,0.000479259786736,-0.052711378783,-0.120246805251,0.097617328167,0.407070636749,0.206509828568,-0.899472236633
1586434567.34,0.263873457909,-11.2272577286,74.2180938721,1.77152097225,-0.194839730859,9.74782657623,0,0,0,-0.434316666261,-1.66414500893,-0.298230175434,23.67,-0.00164072019178,-0.00166103671776,0.000496669751,-0.287040442228,-0.0595558732748,0.173208385706,0.389056682587,0.236184120178,-0.903201580048
1586434567.6,-4.33036327362,-11.5748529434,77.9308166504,1.8400529623,-0.859969973564,9.7500371933,0,0,0,-0.411125632963,-1.69274211499,-0.278728498675,23.67,-0.00165881223429,-0.00168067046494,0.000519437812748,-0.238423198462,-0.00517256837338,0.281183809042,0.399050235748,0.270624876022,-0.901257753372
1586434567.86,-9.40037536621,-10.5075016022,82.7455596924,1.61583530903,-1.60223579407,9.82774543762,0,0,0,-0.392698434322,-1.7240563921,-0.247607582463,23.66,-0.00168285712568,-0.00168582654712,0.000561863132366,-0.26776856184,0.0535933859646,0.367524296045,0.430659532547,0.291296482086,-0.895478725433
1586434568.11,-13.1995286942,-8.29065322876,88.7903747559,1.40948414803,-2.38416481018,9.4739522934,0,0,0,-0.364084746674,-1.73994996029,-0.2344673489,23.66,-0.00168369547826,-0.00170940173307,0.000565169709238,-0.209890544415,0.0719929933548,0.459611386061,0.476345777512,0.276930570602,-0.885520458221
1586434568.37,-18.0077800751,-5.70875072479,95.5285415649,1.03761935234,-3.03251957893,9.22124576569,0,0,0,-0.344019995565,-1.75044080874,-0.227989499818,23.65,-0.00167472998216,-0.00171069106969,0.000556076563061,-0.218202441931,0.00844543147832,0.485470622778,0.516117811203,0.267819404602,-0.87459731102
1586434568.63,-18.0060520172,-4.21814441681,102.689582825,0.773994624615,-3.04451823235,9.21440219879,0,0,0,-0.32104085279,-1.75909435626,-0.224766389476,23.65,-0.00166715702757,-0.001712665198,0.000543003211965,0.250665277243,-0.105581201613,0.478297114372,0.528877258301,0.194693565369,-0.884313106537
1586434568.88,-12.3807020187,-4.33214616776,109.869308472,0.665553450584,-2.17748999596,9.51041603088,0,0,0,-0.29006265781,-1.77393243173,-0.219636109476,23.65,-0.00167827428424,-0.00172378955917,0.000536288673696,0.480741739273,-0.143858000636,0.484665930271,0.499923229218,0.0338213443756,-0.910635709763
1586434569.14,-8.75299739838,-4.63023281097,117.082695007,0.842352509499,-1.34561026096,9.67965316772,0,0,0,-0.275249487949,-1.78040643873,-0.212469416688,23.64,-0.00167035631523,-0.0017027673384,0.000537355797087,0.0686011090875,-0.0634454786777,0.453566998243,0.46506857872,-0.0941851139069,-0.921036481857
1586434569.41,-11.752863884,-3.50376963615,123.199501038,1.06565773487,-1.41853201389,9.63917732239,0,0,0,-0.29866503255,-1.75985097717,-0.206353636234,23.64,-0.00160007946692,-0.00161785917379,0.000542890705109,-0.202941685915,0.0372248105705,0.365322172642,0.445085525513,-0.108204841614,-0.92430973053
1586434569.66,-11.4194250107,-2.27372956276,126.521278381,0.345990985632,-1.32588040829,9.68017578125,0,0,0,-0.31735230854,-1.77642424599,-0.199333873335,23.63,-0.00160493736112,-0.00152795167773,0.000549754887163,0.150596544147,0.0417033210397,0.0707065761089,0.441741943359,-0.138523578644,-0.925531625748
1586434569.92,-9.58209037781,-1.81097817421,124.526695251,0.335337907076,-1.76771509647,9.96441936493,0,0,0,-0.283281951065,-1.77617767986,-0.170426848809,23.63,-0.00160046566958,-0.00154877490678,0.000592470502855,0.0913897678256,0.0607537217438,-0.130785644054,0.463808298111,-0.157362699509,-0.912292718887
1586434570.17,-7.87360334396,-0.838489472866,122.581802368,0.209768071771,-1.38314056396,9.93701553345,0,0,0,-0.256495918778,-1.7756146134,-0.147841223271,23.62,-0.00158985836983,-0.00155510611276,0.000624093898574,0.150136858225,0.109345681965,-0.127285018563,0.48926782608,-0.170838594437,-0.89564704895
1586434570.43,-4.33625125885,-0.207109495997,120.641304016,0.0613415725529,-0.556242525578,9.85596179962,0,0,0,-0.245667989676,-1.78384523371,-0.138286376312,23.62,-0.00158520456089,-0.00152760319546,0.00063344943384,0.317199915648,0.0346610508859,-0.137042313814,0.508259773254,-0.206762313843,-0.875316619873
1586434570.69,-0.493388712406,1.28298258781,117.737083435,-0.298701584339,0.127933993936,9.86522769928,0,0,0,-0.235065568412,-1.80276700549,-0.130955337464,23.61,-0.00159634178242,-0.00149614598397,0.000640120658073,0.175508782268,0.183245837688,-0.233079999685,0.547564268112,-0.239837169647,-0.840660810471
1586434570.95,-4.10483074188,3.8071539402,112.456604004,-0.168143630028,-0.373149901628,9.74751663208,0,0,0,-0.246765098299,-1.7816258319,-0.131546527759,23.61,-0.00152227119809,-0.00144592992524,0.000636900536141,-0.674434363842,0.188213229179,-0.474482089281,0.612862825394,-0.149260044098,-0.830101728439
1586434571.2,-19.6573238373,4.97698163986,102.831840515,-1.49470853806,-3.22972917557,9.1446428299,0,0,0,-0.215627858232,-1.84799827225,-0.128046925185,23.6,-0.00161995610318,-0.00143776449554,0.000625708364649,-1.24712371826,0.230504915118,-0.700290203094,0.674233198166,0.154759883881,-0.803372383118
1586434571.46,-39.7466964722,3.72570466995,91.2957611084,-0.444344013929,-5.53239679337,7.66351604462,0,0,0,-0.260711876435,-1.85860776135,-0.106509402067,23.6,-0.0015884506888,-0.00132784491002,0.000642681725406,-0.97524535656,0.338267415762,-0.725164294243,0.67799782753,0.530489444733,-0.657476663589
1586434571.72,-51.5734710693,-1.40682899952,80.5570831299,0.366108477116,-6.6526093483,6.03067111969,0,0,0,-0.334723966672,-1.8785342294,-0.0980579252054,23.59,-0.00156721886737,-0.00117069665364,0.000628389597459,-0.778647482395,0.220295712352,-0.835757493973,0.605166435242,0.769986391068,-0.494829893112
1586434571.98,-56.5328636169,-10.9408330917,71.1003036499,1.99049341679,-7.37003469467,5.18272447586,0,0,0,-0.385113215936,-1.88973278497,-0.0901784126462,23.59,-0.0015463441764,-0.00106814822357,0.000606122492818,-0.191246286035,0.0881382524967,-0.883480548859,0.432293891907,0.934111356735,-0.388913631439
1586434572.24,-56.6348571777,-20.4459648132,62.9567108154,3.67864584923,-7.78575992584,5.25537109375,0,0,0,-0.379572077444,-1.87370438279,-0.0498927777948,23.58,-0.00150706759186,-0.00108450326346,0.000636816876948,-0.0108562670648,0.147355884314,-0.764677703381,0.241968870163,1.02073860168,-0.343217134476
1586434572.49,-52.1831359863,-26.1578140259,54.7561302185,4.83620738983,-6.99638223648,5.75933122635,0,0,0,-0.38916249869,-1.83803446979,0.000966625936756,23.58,-0.00142680985924,-0.00109070627419,0.000692128560927,0.0785424560308,0.21564899385,-0.501684486866,0.105076551437,1.04432296753,-0.356524944305
1586434572.75,-45.5332984924,-28.8783683777,46.0461425781,5.00853490829,-6.21586275101,6.24220275879,0.8469,-3.4282,1.01872523512,-0.0765508953196,-2.24145242026,-0.241159256773,23.58,-0.00184264654402,-0.0013014451384,0.000397375229183,0.0740728378296,0.256495296955,-0.440652877092,0.00574660301208,1.03143763542,-0.397137641907
1586434573.01,-42.0088348389,-30.2542476654,37.5667991638,4.82107448578,-5.96672010422,6.42893743515,0,0,0,-0.0649906820628,-2.26789408305,-0.212467807661,23.57,-0.00185916887115,-0.00134039894699,0.000414765871021,-0.0811637416482,0.356453120708,-0.385273694992,-0.0697679519653,1.03156971931,-0.392923116684
1586434573.27,-38.12890625,-29.3892383575,30.053440094,4.99101209641,-5.32332038879,7.12894630432,0,0,0,-0.0781147180664,-2.27794198616,-0.172598629108,23.57,-0.00183489189096,-0.00134678352541,0.000467569867893,0.100842781365,0.313422560692,-0.286736637354,-0.112595558167,1.02475810051,-0.405045509338
1586434573.53,-31.1078948975,-26.8469963074,23.691362381,4.36449146271,-5.05187129974,7.59548854828,0,0,0,-0.0584887514584,-2.3004865768,-0.15130228724,23.56,-0.00184442594322,-0.00141711605673,0.000481697225459,0.444391071796,0.358363956213,-0.116879656911,-0.120976924896,0.990722417831,-0.480471134186
1586434573.78,-21.6182365417,-21.7731742859,19.513885498,3.82943630219,-3.62144589424,8.83833789825,0,0,0,-0.0624110880408,-2.30784083449,-0.119442581265,23.56,-0.00181839359902,-0.00145280464441,0.000530737720488,0.470996260643,0.48999980092,-0.0557859614491,-0.0831694602966,0.914470434189,-0.612846136093
1586434574.04,-14.8496732712,-15.3989429474,17.066286087,2.4912712574,-2.6070868969,9.29096794128,0,0,0,-0.0687299491619,-2.33819991763,-0.102565587918,23.55,-0.00183383157239,-0.00147761192212,0.000550196886294,0.283631384373,0.41192945838,-0.0345453992486,-0.00691795349121,0.843904733658,-0.699487686157
1586434574.3,-11.5711622238,-9.36319541931,15.0625648499,2.12446761131,-1.9238307476,9.55235481262,0,0,0,-0.0950596828722,-2.32801495202,-0.0953208356202,23.55,-0.00176121064488,-0.00147428040101,0.00055963399816,0.0509845465422,0.425290852785,-0.00392161635682,0.0667364597321,0.806396961212,-0.738063335419
1586434574.56,-12.7238998413,-4.15222120285,12.7591276169,0.836198866367,-1.86909115314,9.75337791443,0,0,0,-0.13596886203,-2.34395475259,-0.0773553602497,23.54,-0.00174294584924,-0.00143557406984,0.000586448894089,-0.0299331042916,0.381285816431,-0.146181255579,0.124041557312,0.825158596039,-0.706222057343
1586434574.81,-11.5107698441,-0.0245817452669,9.91901683807,0.131962791085,-1.69792199135,9.50995445251,0,0,0,-0.174408150553,-2.36073608027,-0.0799987554852,23.54,-0.00172481715988,-0.00139944589316,0.000571558136504,-0.0970881730318,0.252333253622,-0.167872831225,0.157781362534,0.815891504288,-0.713690280914
1586434575.07,-15.0561246872,2.86934280396,5.67138004303,-0.54930883646,-2.16018080711,9.49858570099,0,0,0,-0.222370756368,-2.38703624512,-0.0713307367198,23.54,-0.00173198966533,-0.00134664376992,0.000574877108444,-0.230825453997,0.240072578192,-0.253096371889,0.158252716064,0.865397453308,-0.660002231598
1586434575.33,-17.8106193542,4.94655561447,-0.232365757227,-0.940834283829,-2.73852515221,9.50538444519,0,0,0,-0.263920356018,-2.40923924928,-0.0484528627315,23.53,-0.00174425573671,-0.00131247723681,0.000600630134319,-0.0774127244949,0.290501207113,-0.362258046865,0.128361940384,0.901946783066,-0.614265203476
1586434575.59,-18.1354999542,7.03412675858,-5.21193313599,-1.39469587803,-2.85371923447,8.88954734802,0,0,0,-0.299119420183,-2.44041775568,-0.0645509266002,23.53,-0.00177130709023,-0.0012870452795,0.000549848033006,0.0360271073878,0.170157343149,-0.255417197943,0.104996919632,0.910222768784,-0.613175153732
1586434575.84,-16.6702308655,7.71853923798,-9.09192180634,-1.37859773636,-2.90914726257,8.79293823242,0,0,0,-0.315951618315,-2.46138318658,-0.0905721529015,23.52,-0.00178054305403,-0.0013021335967,0.000478384406804,0.222722679377,0.0613590963185,-0.183972030878,0.0740163326263,0.894063711166,-0.635518074036
1586434576.1,-15.3575763702,6.90257024765,-10.9936447144,-0.860623061657,-2.31243944168,9.45671081543,0,0,0,-0.362460309582,-2.45178587023,-0.0810328459492,23.52,-0.0017347223949,-0.00126430606361,0.000486580081001,0.0851562395692,-0.0378929078579,-0.108939044178,0.0435926914215,0.878451347351,-0.660610437393
1586434576.36,-11.9040584564,5.39675855637,-11.8695669174,-0.881790757179,-1.74911522865,9.59453010559,0,0,0,-0.40876726933,-2.46113774851,-0.0735794630559,23.52,-0.00172816030665,-0.00122688305372,0.000490590945075,0.209657564759,-0.117078840733,-0.0951968505979,0.0082221031189,0.834937572479,-0.706310033798
1586434576.62,-9.10610580444,4.75414276123,-12.6821126938,-0.660103261471,-1.73378813267,9.60035228729,0,0,0,-0.425330720304,-2.46316031784,-0.0689493804049,23.52,-0.00170641727391,-0.00125246710889,0.000483385484221,0.21380622685,-0.0246405676007,-0.0247005447745,-0.00775527954102,0.803225278854,-0.744330406189
1586434576.88,-6.34786367416,4.90652942657,-12.7788162231,-0.980807006359,-1.38667321205,9.98494052887,0,0,0,-0.436141868467,-2.48207299684,-0.0366167508508,23.51,-0.00172650234861,-0.00129637081467,0.000521109654215,0.169278144836,0.0616656690836,0.0239903163165,-0.00907874107361,0.765256404877,-0.776467561722
1586434577.13,-3.36478662491,5.0449347496,-11.7584352493,-0.827941775322,-0.340460717678,9.82989215851,0,0,0,-0.479928491181,-2.49198629722,-0.0276328322856,23.51,-0.00172074104973,-0.00126320679852,0.000530385931516,0.160024881363,-0.0437218733132,0.0626145079732,0.00216150283813,0.72615146637,-0.808295726776
1586434577.39,-2.4369699955,4.62909317017,-11.4080839157,-0.641685128212,-0.341883718967,9.8846950531,0,0,0,-0.513259354758,-2.49416576289,-0.0141352682856,23.51,-0.00169847303325,-0.0012525310586,0.000546035869933,0.0406974926591,-0.0456430017948,0.0152936233208,0.00515985488892,0.712244272232,-0.82150387764
1586434577.65,-2.55714416504,4.15660476685,-12.1443252563,-0.70393538475,-0.435675323009,10.1107740402,-1.423,-1.8879,0.719449922859,-0.72396608523,-2.38690902716,-0.18828645169,23.51,-0.00156792219536,-0.00104022685268,0.000453861026652,-0.0772308781743,0.0339066684246,-0.0806886926293,-0.0101037025452,0.715153217316,-0.819667100906
1586434577.91,-2.52038621902,4.23179006577,-13.2993125916,-0.624734640121,-0.312827289104,9.66343688965,0,0,0,-0.756123071026,-2.39271422153,-0.191901664761,23.5,-0.00155447841626,-0.0010245428832,0.000439763493868,0.0408364534378,-0.0419672690332,-0.0957988351583,-0.0200221538544,0.711722612381,-0.818257570267
1586434578.16,-2.31941747665,3.96959972382,-14.5141572952,-0.589751124382,-0.490430414677,9.84947681427,0,0,0,-0.778285101639,-2.3978996596,-0.183052324712,23.5,-0.00154244909307,-0.00103667436838,0.000448098398968,-0.00559538649395,-0.0350039452314,-0.0373985655606,-0.0376064777374,0.708106994629,-0.8192486763
1586434578.42,-0.482059776783,3.29698181152,-15.7358541489,0.258227050304,-0.129756227136,9.69706726074,0,0,0,-0.798398391447,-2.3665949355,-0.188401885081,23.5,-0.0014325551263,-0.0010415735901,0.000436162719762,0.416281610727,-0.0464000105858,-0.116942532361,-0.0621910095215,0.68331360817,-0.83757352829
1586434578.68,9.13431358337,2.74921965599,-18.3166275024,-0.397097080946,1.38998699188,9.88605213165,0,0,0,-0.81788701765,-2.37157439406,-0.172420449165,23.49,-0.0014225786692,-0.00106346518702,0.00046215436286,0.866036117077,-0.0346661731601,-0.213696762919,-0.0952422618866,0.537980318069,-0.923129796982
1586434578.94,19.9906902313,2.80351424217,-20.9798526764,-0.355085074902,3.22057938576,9.37948608398,0,0,0,-0.838926533112,-2.37347486022,-0.16052648344,23.49,-0.0014056165827,-0.00108061610251,0.000483297293042,0.39388769865,-0.0500008799136,-0.122238405049,-0.120470523834,0.345627307892,-0.992513895035
1586434579.2,15.1334371567,3.3161714077,-22.7542858124,-0.171012699604,2.93748760223,9.48184871674,0,0,0,-0.882308921229,-2.35795582841,-0.162005158336,23.49,-0.00135115310444,-0.00102916880043,0.000486293129218,-0.675339818001,0.0156989656389,-0.168538823724,-0.133358001709,0.4120221138,-0.969541311264
1586434579.46,8.32056522369,4.5838766098,-26.9402122498,-0.404012203217,1.6336222887,9.69842720032,0,0,0,-0.917022633827,-2.3421602155,-0.160468229902,23.49,-0.00129889701372,-0.000999228612216,0.00048872568334,-0.256756186485,0.0439851097763,-0.373322159052,-0.158080816269,0.515400886536,-0.925260782242
1586434579.71,2.81107378006,6.29479837418,-32.8055152893,-0.867217481136,0.799764692783,9.66661739349,0,0,0,-0.957656478218,-2.33117550641,-0.163660923312,23.49,-0.0012697696905,-0.0009553697684,0.000478866168597,-0.267675459385,0.125911056995,-0.422272592783,-0.188636302948,0.573652744293,-0.888361215591
1586434579.97,2.73863220215,7.8479590416,-40.2770385742,-0.982398986816,0.52951580286,9.78151226044,0,0,0,-0.984363804343,-2.31090842822,-0.154897706057,23.49,-0.00122031819142,-0.0009459711297,0.000488024416229,0.184032812715,0.0553714931011,-0.5790797472,-0.234214305878,0.538679122925,-0.896713018417
1586434580.23,4.49359130859,8.48239612579,-50.5533180237,-1.30450046062,0.528003573418,10.0046043396,0,0,0,-0.999065086025,-2.29844036305,-0.124608147601,23.49,-0.00120049898919,-0.000977535525363,0.000530356330427,0.209812045097,-0.043938793242,-0.76360720396,-0.305731773376,0.438500881195,-0.920703649521
1586434580.49,-3.82859778404,8.14732170105,-60.3560066223,-1.03861355782,-0.845785558224,9.77101421356,0,0,0,-1.01088280601,-2.27239210934,-0.113515423463,23.48,-0.00115170391419,-0.00100395708927,0.00054068883212,-1.06001269817,-0.0287471152842,-0.534220159054,-0.377197027206,0.475871086121,-0.876545906067
1586434580.75,-18.4581699371,7.10414648056,-65.7680130005,-1.14482474327,-2.75409245491,9.17231845856,-2.1496,-1.2176,0.569812266727,-1.20991425817,-2.09986620252,-0.235376423304,23.49,-0.00102267566862,-0.000734151282468,0.000475585285455,-0.50930416584,0.030459323898,-0.348046541214,-0.428007125854,0.640892744064,-0.752133369446
1586434581.0,-18.6942691803,5.38062047958,-68.0348358154,-0.846843779087,-3.34967327118,9.35865306854,0,0,0,-1.22095282888,-2.08513494968,-0.229063351421,23.48,-0.00101302998787,-0.000762399868987,0.000487517516101,0.201191604137,-0.0983283147216,0.00178050273098,-0.468358278275,0.620517969131,-0.741544485092
1586434581.27,-16.3720302582,4.82745361328,-65.7656784058,-0.648880541325,-2.85446548462,9.5124502182,0,0,0,-1.23660800454,-2.06562984744,-0.221656903517,23.48,-0.000989412504988,-0.000774882426411,0.000502753407867,0.100579701364,-0.0210829116404,0.196431830525,-0.465326070786,0.608261108398,-0.753092050552
1586434581.53,-14.2852993011,6.3592581749,-63.2809638977,-0.673849463463,-2.35566520691,9.46148204803,0,0,0,-1.25509308281,-2.03738575677,-0.220756761574,23.48,-0.000934056389023,-0.000767525703946,0.000504135235957,0.120285756886,0.100607633591,0.173200175166,-0.425935029984,0.608232736588,-0.772572040558
1586434581.79,-11.174079895,8.95788097382,-61.6760025024,-1.55290865898,-1.58295607567,9.54413509369,0,0,0,-1.28684162385,-2.02290195963,-0.217248704186,23.48,-0.000936868086306,-0.000728191384388,0.000508205281011,0.239044338465,0.197264477611,0.111460931599,-0.381013870239,0.584240674973,-0.810737133026
1586434582.04,-8.98324298859,12.016046524,-61.5928916931,-2.03851485252,-1.36492991447,9.44660758972,0,0,0,-1.31147890555,-2.00984938399,-0.214853929536,23.48,-0.000935979244711,-0.00071025185684,0.000504094383498,0.0639254376292,0.167007923126,-0.0048533086665,-0.330221891403,0.552765369415,-0.847659826279
1586434582.3,-8.48195838928,12.1435680389,-59.9587059021,-1.9623374939,-1.32959508896,9.47577476501,0,0,0,-1.33403246264,-1.99412495409,-0.210799877636,23.48,-0.000921921210059,-0.000698572238496,0.000502514297734,0.00745710078627,-0.114090017974,0.178652077913,-0.315753936768,0.564877748489,-0.852816820145
1586434582.56,-6.71636533737,9.77617835999,-57.1615219116,-1.75018680096,-0.944709479809,9.71875667572,0,0,0,-1.36253918319,-1.98399382384,-0.200474766541,23.49,-0.000932883138196,-0.000673420839106,0.000516192329464,0.144028916955,-0.212515592575,0.125050798059,-0.336090326309,0.560212850571,-0.843374013901
1586434582.82,-3.53918814659,6.53545570374,-55.6625976562,-1.23048269749,-0.610914647579,9.75325489044,0,0,0,-1.38636316859,-1.97859344068,-0.193894604207,23.47,-0.000948265562498,-0.000674676960942,0.000518665375347,0.265783756971,-0.258129239082,0.0520495995879,-0.375172138214,0.521577119827,-0.846041440964
1586434583.08,1.27447593212,2.2371430397,-55.2441635132,-0.670148134232,0.259445160627,9.90093040466,0,0,0,-1.41487608992,-1.97783635246,-0.183844810119,23.47,-0.000987448471698,-0.00066926540923,0.000530218622301,0.376785010099,-0.298177808523,-0.0171940922737,-0.436144590378,0.455738306046,-0.856466054916
1586434583.33,5.3550491333,-2.27828812599,-56.7543678284,0.159817054868,0.707161009312,9.95615577698,0,0,0,-1.43538578478,-1.97771105173,-0.167246288502,23.48,-0.00101921437431,-0.000697763358763,0.000553480010583,0.0889635160565,-0.305769324303,-0.0898275971413,-0.512571573257,0.382694005966,-0.842404842377
1586434583.59,8.08790016174,-5.01170110703,-57.0860595703,0.908544778824,0.968281149864,9.99456977844,0,0,0,-1.44652218571,-1.97134196099,-0.142957843961,23.48,-0.00101224687927,-0.000753307892772,0.000592053578499,0.28091365099,-0.0787876844406,0.078162766993,-0.554424524307,0.341850996017,-0.826900243759
1586434583.85,9.32002067566,-6.09834623337,-55.4862136841,1.0137963295,1.48823940754,9.71552467346,0,0,0,-1.46846265077,-1.96471044093,-0.1346221215,23.48,-0.00101616792334,-0.000765893088341,0.000602540264223,-0.0775344893336,-0.058756776154,0.0914933234453,-0.555585861206,0.338601112366,-0.830249547958
1586434584.11,6.64129161835,-6.97710514069,-54.0747375488,0.98059296608,1.30037438869,9.78647422791,-2.3913,-1.0683,0.545037820348,-1.58858906205,-1.87383086289,-0.225801109648,23.47,-0.00101056554504,-0.000590154617838,0.000564569789338,-0.262711256742,-0.0214379355311,0.100846432149,-0.556222915649,0.388410806656,-0.815284490585
1586434584.36,3.65559506416,-6.36436414719,-53.3702125549,0.971870660782,0.662899255753,9.82483673096,0,0,0,-1.61344972358,-1.86694922782,-0.220424310536,23.47,-0.00102615187319,-0.000584525662833,0.000574867858711,-0.0418160110712,0.0979168489575,0.0096021220088,-0.542690038681,0.435369253159,-0.803289175034
1586434584.62,4.88592720032,-4.24755954742,-53.3268127441,0.798552513123,0.660975813866,9.68052482605,0,0,0,-1.63052460758,-1.85984875622,-0.220616343487,23.47,-0.00101643323546,-0.000607932323992,0.000566473437957,0.160684302449,0.158062070608,-0.0219192449003,-0.516164541245,0.421563863754,-0.828630447388
1586434584.88,7.30135536194,-1.7233864069,-53.6600036621,0.558708310127,1.03365540504,9.57679176331,0,0,0,-1.64340644883,-1.84987912768,-0.223683971502,23.47,-0.000980320644957,-0.000636868167796,0.000548638146963,0.103950716555,0.170728772879,-0.0487711392343,-0.480892181396,0.380280971527,-0.866500616074
1586434585.14,6.63610219955,0.586787164211,-53.7332267761,0.173568442464,0.918321967125,9.64928627014,0,0,0,-1.65601615939,-1.84015651435,-0.223602351095,23.47,-0.000942540463776,-0.000666223572729,0.000537061654428,-0.187530785799,0.144979223609,0.00177044479642,-0.448573589325,0.382206916809,-0.880625247955
1586434585.4,3.77351427078,2.43137001991,-53.0439376831,-0.131711497903,0.425156146288,9.8568649292,0,0,0,-1.66809192504,-1.83042392292,-0.21514290452,23.47,-0.000902991711689,-0.000696054930391,0.000545419303758,-0.144331932068,0.109937250614,0.0571889914572,-0.41366815567,0.431043863297,-0.883025169373
1586434585.65,4.20290708542,3.91015791893,-50.6343460083,-0.625988423824,0.519048631191,9.9528055191,0,0,0,-1.68593308173,-1.82626971118,-0.19975231684,23.47,-0.000896897516331,-0.000723139663505,0.000567150204767,0.0871332511306,0.114255607128,0.236021608114,-0.3751912117,0.439885377884,-0.896437168121
1586434585.92,6.48352527618,5.02576541901,-45.8003387451,-0.898408353329,1.14583921432,9.76972007751,0,0,0,-1.71151389821,-1.82184438633,-0.191000741972,23.45,-0.000902110516041,-0.000717164464074,0.000573719321446,0.0935765728354,0.090477861464,0.367814362049,-0.323739290237,0.440968513489,-0.916723489761
1586434586.18,5.8590426445,5.38636684418,-39.9286727905,-0.858960092068,1.03916561604,9.78699398041,0,0,0,-1.73406834772,-1.81790586302,-0.182252660731,23.47,-0.000893088317376,-0.000711052910114,0.000581755133459,-0.229927733541,0.0516096502542,0.384026110172,-0.264317989349,0.484215021133,-0.91520690918
1586434586.44,1.57144975662,5.50149440765,-34.570854187,-0.922558069229,0.370817601681,9.93239688873,0,0,0,-1.75939834314,-1.81473524436,-0.168381182332,23.47,-0.000890109175738,-0.000696224998081,0.000601806026115,-0.381013810635,0.0308068823069,0.352856695652,-0.215311527252,0.580357789993,-0.877956867218
1586434586.69,-3.83454155922,6.13081121445,-29.9604511261,-1.07889795303,-0.468416750431,9.81475257874,0,0,0,-1.78642167778,-1.81214626613,-0.158929189621,23.47,-0.000894089304885,-0.000670052742608,0.000611420001094,-0.358524441719,0.0375649221241,0.249684974551,-0.156369447708,0.680373191833,-0.824979305267
1586434586.95,-8.19416904449,7.18214797974,-27.0436248779,-1.28097510338,-1.14743852615,9.77123260498,0,0,0,-1.81457928338,-1.80859017785,-0.14605726182,23.47,-0.000901299977318,-0.00063574366656,0.000627766764586,-0.292519927025,0.0572605356574,0.167148068547,-0.114941596985,0.752942562103,-0.773569822311
1586434587.21,-11.0551071167,8.61972808838,-25.1294212341,-1.39288544655,-1.70761120319,9.72329711914,0,0,0,-1.83808148882,-1.80446213541,-0.128407872441,23.47,-0.000889622509933,-0.000613476696712,0.000652248629616,-0.119909659028,0.0863632336259,0.125784263015,-0.0734939575195,0.799565076828,-0.737667322159
1586434587.47,-10.7193450928,10.3740444183,-23.6247940063,-1.66230142117,-1.72925066948,9.54829120636,0,0,0,-1.85855493668,-1.80306836649,-0.116868802186,23.47,-0.00087421615784,-0.000603688557841,0.000660050663657,0.0540120638907,0.104901760817,0.122589074075,-0.0302577018738,0.799794197083,-0.738809347153
1586434587.72,-9.62166595459,12.0139894485,-21.8810920715,-1.84244811535,-1.65708231926,9.41014289856,0,0,0,-1.8737963084,-1.80468395292,-0.110683429769,23.47,-0.000845142682993,-0.000611020564657,0.000653455328447,0.0487675964832,0.0719225183129,0.143934607506,0.0133337974548,0.790632486343,-0.747139930725
1586434587.98,-7.93410253525,13.2171621323,-19.5772247314,-2.14990615845,-1.30009913445,9.58377742767,0,0,0,-1.8926018742,-1.80642428947,-0.094309973724,23.46,-0.000831211254069,-0.000607950650174,0.000668407119992,0.0716948956251,0.0538991875947,0.176570773125,0.0528638362885,0.770052671432,-0.760558366776
1586434588.24,-6.71169805527,14.5342826843,-16.9488258362,-2.47984480858,-1.02420079708,9.73471546173,0,0,0,-1.91488303794,-1.80806246529,-0.0671748502963,23.46,-0.000833226635566,-0.000594963629127,0.000705566764467,0.00803936365992,0.0861546173692,0.194211512804,0.100283384323,0.760699033737,-0.766582965851
1586434588.5,-5.88846731186,16.3992462158,-14.0711631775,-2.69771075249,-0.836762666702,9.49027061462,0,0,0,-1.9346797479,-1.80919644753,-0.0494667654127,23.46,-0.000822118001728,-0.000575801545538,0.000721311725652,0.052309602499,0.112212665379,0.200974062085,0.159746408463,0.751280546188,-0.762912750244
1586434588.75,-4.1535615921,18.2691059113,-10.8965940475,-2.98796844482,-0.491304010153,9.27694988251,0,0,0,-1.95330589051,-1.81033729434,-0.0403430934988,23.46,-0.000808733237913,-0.00054876402226,0.00071932068235,0.00403281394392,0.0993950515985,0.216428056359,0.217890501022,0.730896949768,-0.768131494522
1586434589.02,-3.99721884727,19.5108718872,-7.78019332886,-3.20570254326,-0.520504176617,9.15970516205,-3.1567,-1.4698,0.439994167699,-2.08475502024,-1.78807556644,-0.138328743717,23.46,-0.000917623020427,-0.000422169988022,0.000642525438329,-0.104733213782,0.0451224111021,0.183948382735,0.263286828995,0.72925901413,-0.753191232681
1586434589.27,-4.81478404999,19.8766937256,-5.10040903091,-3.2173063755,-0.720807135105,9.09108924866,0,0,0,-2.1007303815,-1.793285135,-0.132062624105,23.46,-0.000900374278087,-0.000414516052421,0.000630464675877,-0.110066697001,-0.0135798025876,0.165521547198,0.29900932312,0.736352682114,-0.734058141708
1586434589.53,-7.14547252655,19.3956890106,-2.30958533287,-3.12852787971,-0.993532061577,9.12338161469,0,0,0,-2.1171572465,-1.79538585074,-0.124453178495,23.46,-0.000881274769845,-0.000391774770038,0.000623692879037,-0.329012602568,-0.0749800652266,0.172896206379,0.320329427719,0.761760950089,-0.701993465424
1586434589.79,-12.0305719376,18.1800003052,0.031155128032,-3.07842564583,-1.68971180916,9.11740207672,0,0,0,-2.13906254153,-1.79544724488,-0.113932229578,23.47,-0.000883282439513,-0.000355135028403,0.000623918920969,-0.431764930487,-0.139751046896,0.0995311066508,0.327999830246,0.815316438675,-0.640383481979
1586434590.05,-16.7191314697,16.0438690186,1.40026819706,-2.64732599258,-2.59563708305,9.12320995331,0,0,0,-2.15688122175,-1.7977973643,-0.0984939136411,23.46,-0.000873439336093,-0.000337771336665,0.00063480938466,-0.204003319144,-0.162296801805,0.0188676696271,0.311010360718,0.867261171341,-0.582149028778
1586434590.31,-15.8346261978,13.7621946335,2.03988289833,-2.38776707649,-2.54264426231,9.17376041412,0,0,0,-2.17869266757,-1.8046787691,-0.086745656472,23.47,-0.000881032411703,-0.000329274233874,0.000635176516385,0.213203445077,-0.160690784454,-0.0133600113913,0.284079313278,0.861987829208,-0.602721452713
1586434590.57,-11.0620250702,11.1842346191,2.67898702621,-1.88167321682,-1.91699934006,9.47927856445,0,0,0,-2.19580575694,-1.8159280116,-0.0751090581155,23.47,-0.000877711398183,-0.000339336246587,0.000638621980526,0.314283341169,-0.186444908381,0.0117315044627,0.255662202835,0.811120510101,-0.67479133606
1586434590.83,-7.42004680634,8.32618045807,3.57884597778,-1.37038600445,-1.29367649555,9.72268772125,0,0,0,-2.21273000037,-1.82676760989,-0.0619979941928,23.47,-0.000869998333907,-0.000344858393951,0.000649727659028,0.167777612805,-0.202907651663,0.0414675213397,0.224693536758,0.769159078598,-0.734753131866
1586434591.08,-5.51981258392,5.50706386566,4.75853061676,-0.969728291035,-0.84221893549,9.88393783569,0,0,0,-2.23360698523,-1.83341680029,-0.0474790508831,23.47,-0.000873715546994,-0.000330123356903,0.000669167291795,0.119344748557,-0.181399703026,0.0702785477042,0.19670176506,0.738510608673,-0.765882730484
1586434591.34,-3.86367917061,3.23148822784,6.18714332581,-0.562304198742,-0.46885061264,9.95091819763,0,0,0,-2.25523921545,-1.83669220781,-0.0337014257477,23.47,-0.000874533501108,-0.000301361532049,0.000690657338603,0.0620747059584,-0.138257101178,0.10230448842,0.178185224533,0.716239929199,-0.789030075073
1586434591.59,-3.48757553101,1.4380030632,8.03786754608,-0.174702569842,-0.372870415449,9.86998462677,0,0,0,-2.27388418335,-1.83830325422,-0.0259896371761,23.47,-0.000863364989255,-0.000267770264699,0.000700545512569,0.01027081348,-0.125998660922,0.114307016134,0.174712657928,0.707037210464,-0.79797077179
1586434591.85,-3.30661606789,-0.284211337566,9.41151809692,0.0411359481514,-0.391591191292,9.91229915619,0,0,0,-2.29533593198,-1.8430338292,-0.0158680637016,23.47,-0.000864054652325,-0.0002414309008,0.000714870660812,-0.00609196862206,-0.118660196662,0.063780143857,0.15819644928,0.702314138412,-0.806676387787
1586434592.11,-2.95764708519,-1.90159881115,10.3399877548,0.154343992472,-0.468707680702,9.84622955322,0,0,0,-2.32254968457,-1.85652473148,-0.00751980177031,23.47,-0.000889701009832,-0.000235847250931,0.00072089104089,0.050893612206,-0.100864842534,0.0551288984716,0.145431041718,0.693516254425,-0.811976671219
1586434592.37,-1.7899492979,-3.11100912094,10.9939746857,0.259037613869,-0.204899340868,9.823595047,-3.2792,-1.7166,0.50143479472,-2.47314666517,-1.85397097691,-0.12633495116,23.48,-0.00106052219403,-0.000141124769029,0.000640141078612,0.14025478065,-0.0770006477833,0.0302808415145,0.136845827103,0.675197601318,-0.831557512283
1586434592.63,0.272339463234,-4.1646027565,11.2075538635,0.635300278664,0.0195156000555,9.90508460999,0,0,0,-2.49719842294,-1.86774509415,-0.118832417805,23.48,-0.00107140201167,-0.000144772105427,0.000653451917151,0.128889665008,-0.0573262572289,0.00070873653749,0.121989965439,0.644447803497,-0.855176210403
1586434592.88,1.51792728901,-4.91757965088,11.0327453613,0.713162899017,0.216009303927,9.73469352722,0,0,0,-2.52363440002,-1.88378783784,-0.117890541875,23.48,-0.00108991304183,-0.000151152011593,0.00064847091826,0.0416403636336,-0.0533342473209,-0.0144757349044,0.111152410507,0.622886419296,-0.871499061584
1586434593.14,2.26937913895,-5.95650863647,10.6920099258,0.876318693161,0.358207076788,9.80830001831,0,0,0,-2.55118131406,-1.89895491005,-0.113628086908,23.48,-0.00111039614854,-0.000155218307262,0.00065456166481,0.0415725708008,-0.0738687887788,-0.0246193297207,0.0946154594421,0.617031097412,-0.876336812973
1586434593.4,2.95982575417,-6.72832584381,10.3176355362,1.08010447025,0.351267784834,9.8181476593,0,0,0,-2.57455743138,-1.91844928717,-0.108090206765,23.48,-0.00112043701012,-0.000177176063158,0.000664006296264,0.0608196593821,-0.0306487120688,-0.0160779822618,0.076806306839,0.602388620377,-0.88453245163
1586434593.66,3.87889146805,-6.93707466125,10.1001176834,1.2703422308,0.528693795204,9.73138141632,0,0,0,-2.59147244481,-1.93549567803,-0.106548828727,23.48,-0.00110787194648,-0.000196109382623,0.000665109420002,0.0565020367503,-0.0170283038169,-0.0101443370804,0.0722508430481,0.593808412552,-0.896263599396
1586434593.91,4.27544593811,-7.7951874733,10.2885103226,1.32906985283,0.678995013237,9.75800037384,0,0,0,-2.61303927715,-1.94983848875,-0.10331049533,23.48,-0.00110795882964,-0.00020267593939,0.000672268953059,-0.0231456011534,-0.0862147659063,0.0371670313179,0.0605688095093,0.584388017654,-0.898773670197
1586434594.17,3.81641101837,-9.14231967926,11.0802106857,1.62795293331,0.635465800762,9.88090324402,0,0,0,-2.63146752157,-1.9609585167,-0.0939951836253,23.48,-0.00109733503567,-0.000203486414174,0.000697751245016,-0.0256560780108,-0.0674605593085,0.0708924755454,0.0470113754272,0.590550899506,-0.89799618721
1586434594.43,2.62397789955,-9.71775341034,12.2730913162,1.78602313995,0.484004348516,9.73922729492,0,0,0,-2.64809794446,-1.97031183842,-0.0908724038175,23.48,-0.00107776207065,-0.000197078594899,0.000707111650987,-0.0972077399492,-0.0222232230008,0.0899026319385,0.0499701499939,0.60143995285,-0.889066457748
1586434594.68,0.565871655941,-10.384180069,13.474524498,1.68791544437,0.157565385103,9.63960933685,0,0,0,-2.67469271564,-1.98237731997,-0.0909873583684,23.49,-0.00108968263453,-0.000187890114668,0.000705466602018,-0.147635892034,-0.066065043211,0.0602008886635,0.053822517395,0.629413843155,-0.871803283691
1586434594.95,-0.699931144714,-11.4227695465,14.1103429794,1.79567539692,-0.114263571799,9.72522830963,0,0,0,-2.70416815874,-1.99814329622,-0.0851138870965,23.49,-0.00111158142582,-0.000187248164441,0.000718113708905,0.0397147610784,-0.05218238011,0.0363217666745,0.0437948703766,0.647514820099,-0.857105493546
1586434595.2,1.09915411472,-11.3542814255,14.8800773621,1.87668693066,0.183483719826,9.79677391052,0,0,0,-2.72882646863,-2.01256273233,-0.0763186769021,23.49,-0.00111952862557,-0.000187016163643,0.000739539812314,0.129202574492,0.0489415712655,0.047603815794,0.0475959777832,0.619201183319,-0.87639093399
1586434595.46,2.07802128792,-10.7331056595,15.4559412003,1.88824808598,0.396146565676,9.6543674469,0,0,0,-2.74795454484,-2.0235681599,-0.0753683144955,23.49,-0.00111013025856,-0.000179888747879,0.000741905453165,0.0343864820898,0.024304728955,0.0304678492248,0.0668861865997,0.598990440369,-0.888098239899
1586434595.72,2.27807402611,-10.7989034653,15.6988725662,1.85447275639,0.406373977661,9.52255249023,-3.4336,-1.7723,0.509362617561,-2.8768341266,-1.99725225241,-0.182587311285,23.49,-0.00121144347529,-8.54024971551e-05,0.000667498889029,0.0601684786379,-0.0119213033468,0.0199461411685,0.067332983017,0.593989133835,-0.889198541641
1586434595.98,5.04268026352,-10.9308233261,16.048116684,1.82698261738,0.615997374058,9.63280677795,0,0,0,-2.89879110195,-2.02231060004,-0.181824299136,23.49,-0.00121621684519,-0.000117982727874,0.000670894841497,0.257258713245,0.000466965284431,0.021113647148,0.070821762085,0.550204992294,-0.913483858109
1586434596.24,6.32057380676,-11.0200881958,16.6660327911,1.78617691994,0.976918518543,9.69801139832,0,0,0,-2.92503281294,-2.04136467508,-0.17842711158,23.49,-0.00122876614737,-0.000129640641658,0.000685042172436,-0.0581156462431,0.00322256190702,0.0603133775294,0.0774357318878,0.525618553162,-0.92937874794
1586434596.5,2.775639534,-10.9495048523,17.6588172913,1.80104839802,0.54817122221,9.7935552597,0,0,0,-2.9521938702,-2.05241796423,-0.172739904878,23.49,-0.00123737543303,-0.000117684702212,0.000705063591517,-0.292541593313,0.0163657628,0.0419808626175,0.0871469974518,0.572652816772,-0.901999473572
1586434596.75,-0.682221651077,-10.4958248138,17.6066322327,1.82950985432,-0.0285980962217,9.67195034027,0,0,0,-2.97477452873,-2.06233601198,-0.171671564795,23.49,-0.00123110697277,-0.000105231088786,0.000707915786377,-0.132449358702,0.0357894226909,-0.0401005186141,0.0920956134796,0.627619743347,-0.867542505264
1586434597.01,-0.403720408678,-10.1868839264,16.5321426392,1.63847303391,-0.126017808914,9.59294128418,0,0,0,-3.00212464847,-2.08141083726,-0.173634147146,23.5,-0.00124508996087,-0.000113757992488,0.000699719203309,0.0715581849217,0.00982303358614,-0.0836681723595,0.0888822078705,0.631086349487,-0.866512537003
1586434597.27,1.08479547501,-10.195151329,15.3183202744,1.73100507259,-0.01578133367,9.74443054199,0,0,0,-3.02368051963,-2.105574086,-0.169126322124,23.49,-0.00124583379593,-0.000142277742117,0.000709671483728,0.0893356353045,-0.0059075653553,-0.0839725211263,0.0747554302216,0.609083652496,-0.876836538315
1586434597.53,1.47392344475,-10.3282728195,14.3728179932,1.84368133545,0.228086456656,9.82860088348,0,0,0,-3.04312837724,-2.1181234336,-0.161491604318,23.5,-0.00123320309535,-0.000144776559496,0.000730962702183,-0.0548672042787,-0.0115152448416,-0.0372879244387,0.0648787021637,0.607914447784,-0.882609844208
1586434597.78,0.51208370924,-10.6961555481,14.2287054062,1.79024064541,0.225397273898,9.75880908966,0,0,0,-3.07135730379,-2.12431105644,-0.156839594994,23.5,-0.00123737252815,-0.000124243085027,0.0007451554314,-0.0502522960305,-0.0275414455682,0.00694114621729,0.0542912483215,0.625519752502,-0.872901678085
1586434598.04,0.819689035416,-11.0738391876,14.4135847092,1.80467402935,0.154234752059,9.7028131485,0,0,0,-3.10096696775,-2.13846763291,-0.153685253171,23.5,-0.00124891439445,-0.000121722338904,0.000753852484578,0.0870859399438,-0.0162124633789,0.00838246289641,0.0519919395447,0.620109319687,-0.876834392548
1586434598.3,2.15870165825,-11.1209888458,14.5467319489,1.90917849541,0.293459683657,9.7794675827,0,0,0,-3.12345207397,-2.15505076247,-0.146534112198,23.5,-0.00124620564823,-0.000131561001094,0.000772826526575,0.0490276217461,0.00671316077933,0.0187406353652,0.0520799160004,0.597455739975,-0.887912988663
1586434598.56,1.63502836227,-11.0066728592,15.0256681442,1.87009894848,0.295451909304,9.7329120636,0,0,0,-3.14899349578,-2.16775710722,-0.141723855823,23.5,-0.00124642977834,-0.000128291201073,0.000785506544226,-0.0691451132298,0.0143548483029,0.0297395512462,0.0609066486359,0.60090470314,-0.884374141693
1586434598.82,0.681007623672,-10.5590372086,15.4143915176,1.78331637383,0.0766879096627,9.69549942017,0,0,0,-3.17395328639,-2.18443925679,-0.138599083286,23.5,-0.00124846504556,-0.000133820491771,0.000791306789238,-0.0432707443833,0.0421261452138,0.0153822852299,0.0715639591217,0.613657474518,-0.875804901123
1586434599.08,1.3327691555,-9.87671279907,15.3600435257,1.75633227825,0.210636615753,9.67138004303,0,0,0,-3.19386747599,-2.1981722286,-0.137175306123,23.51,-0.00123736681485,-0.000135862785371,0.0007919400191,0.119450137019,0.0329541042447,-0.0134993372485,0.0785267353058,0.606145143509,-0.877851963043
1586434599.34,3.22163748741,-9.94423294067,15.4539165497,1.71064507961,0.55515640974,9.72973823547,0,0,0,-3.21815125583,-2.21137906526,-0.132919239966,23.51,-0.00123470113698,-0.000133888367944,0.000801704760579,0.0844082012773,-0.0253349542618,0.0324776396155,0.0778775215149,0.574143648148,-0.895040512085
1586434599.6,3.30404472351,-10.0083274841,16.3461723328,1.56444883347,0.50547760725,9.6231918335,0,0,0,-3.25058155703,-2.23259912584,-0.133732646603,23.51,-0.00125588357507,-0.000141767162425,0.000798147142739,-0.0141102839261,0.032208301127,0.06704313308,0.0870370864868,0.567101478577,-0.899797201157
1586434599.85,2.56539368629,-9.38301563263,17.5672645569,1.59702026844,0.337051033974,9.6474943161,0,0,0,-3.27307972159,-2.25436375998,-0.133556233839,23.51,-0.00125624205433,-0.000156346285722,0.000794622530561,-0.0581499189138,0.0409634746611,0.0831553712487,0.105762481689,0.572830677032,-0.89103603363
1586434600.11,0.981520175934,-9.28924560547,18.7957859039,1.73333251476,0.159861460328,9.76688575745,0,0,0,-3.28743974308,-2.26721018787,-0.127313002801,23.51,-0.00123325861731,-0.000156966921867,0.000805226849116,-0.118100658059,-0.0160291790962,0.0796383395791,0.117110967636,0.592752695084,-0.881888389587
1586434600.37,-1.57861769199,-9.74163341522,20.033416748,1.69787609577,-0.18248359859,9.80714130402,0,0,0,-3.31095393729,-2.27690362167,-0.118118285784,23.51,-0.00122715881323,-0.000143847532942,0.000823011933069,-0.177275776863,-0.0272024478763,0.0905396565795,0.123798847198,0.625546693802,-0.859022140503
1586434600.63,-2.99964427948,-9.73485088348,21.6291885376,1.55872428417,-0.470332860947,9.70705413818,-3.5682,-1.9729,0.509362617561,-3.39236578692,-2.22362655214,-0.211749984005,23.52,-0.00127092602675,-5.13023956629e-05,0.000774221264029,0.029562599957,0.0179624203593,0.115090787411,0.137256622314,0.641488075256,-0.849274396896
1586434600.89,-1.4735417366,-9.25800418854,23.1720066071,1.58711433411,-0.236625522375,9.7848777771,0,0,0,-3.41626921325,-2.23930543717,-0.205711763607,23.52,-0.00126953653778,-4.94190834406e-05,0.000786474754206,0.163164183497,0.0237250700593,0.0902922973037,0.157517910004,0.615146875381,-0.862622737885
1586434601.14,1.2153236866,-9.06524372101,24.2582206726,1.44665050507,0.147821620107,9.80862426758,0,0,0,-3.44397472359,-2.26079204529,-0.199547359681,23.52,-0.00128321879719,-5.73119156405e-05,0.000800743865902,0.207443416119,0.0112654687837,0.0607056692243,0.168036937714,0.567157745361,-0.886738777161
1586434601.4,3.96180891991,-8.61948680878,25.1229686737,1.41905784607,0.640350401402,9.7749671936,0,0,0,-3.46957929372,-2.28069819334,-0.194787682636,23.52,-0.00129025463985,-6.13874674915e-05,0.000812177374386,0.186338171363,0.0603197291493,0.0477770529687,0.184570789337,0.518882989883,-0.909601211548
1586434601.66,5.9962439537,-7.46506547928,25.7220001221,1.27936768532,1.00777566433,9.71956729889,0,0,0,-3.49298455717,-2.29956225446,-0.192119926415,23.52,-0.001289444813,-6.25399720658e-05,0.000817226500718,0.093286678195,0.0941572859883,0.0336410589516,0.208961248398,0.480172872543,-0.925072431564
1586434601.91,6.47501182556,-6.12960863113,26.7552757263,1.13154101372,1.12606680393,9.70894622803,0,0,0,-3.51164883233,-2.31511450339,-0.190061306234,23.52,-0.00127741224476,-5.88494036579e-05,0.000818857831765,0.00378806190565,0.0986946821213,0.0876417532563,0.239325284958,0.465991258621,-0.919915437698
1586434602.18,4.68490982056,-4.97837162018,28.6926269531,0.951215803623,0.860072672367,9.82294940948,0,0,0,-3.53004814943,-2.32910258482,-0.184045436449,23.52,-0.00126299889372,-4.99639410427e-05,0.000828672733276,-0.19892719388,0.0779105499387,0.13102017343,0.271954298019,0.482674837112,-0.904717683792
1586434602.43,1.5853407383,-3.96090912819,30.3986415863,0.646214365959,0.364612698555,9.8639793396,0,0,0,-3.55550465419,-2.34380089741,-0.17709424108,23.52,-0.00126724232721,-3.65390923447e-05,0.000838319254818,-0.187051683664,0.080343529582,0.0896921530366,0.302253484726,0.519337654114,-0.877393484116
1586434602.69,-1.07667589188,-2.62204480171,31.7386131287,0.349445998669,-0.110534057021,9.7877368927,0,0,0,-3.58397533125,-2.36172413133,-0.172825119109,23.52,-0.00128129661338,-2.6094138894e-05,0.000836473238695,-0.164168730378,0.0957066267729,0.0937873572111,0.333055496216,0.553750514984,-0.84840130806
1586434602.95,-3.22647285461,-1.20138299465,32.94688797,0.149051368237,-0.505997598171,9.79246044159,0,0,0,-3.60943123676,-2.38086297222,-0.166380877181,23.53,-0.00128925731612,-1.94977934152e-05,0.000835918613575,-0.105509564281,0.0928795188665,0.0575805194676,0.36138176918,0.573875427246,-0.820591688156
1586434603.21,-4.47962665558,0.092965207994,33.0885734558,0.0116234663874,-0.769287347794,9.87128639221,0,0,0,-3.62895681824,-2.40057380493,-0.15422194127,23.53,-0.00128503327062,-1.9750801514e-05,0.000846890644142,-0.0727124735713,0.090440928936,-0.00930391531438,0.384684085846,0.58931016922,-0.80286192894
1586434603.46,-4.74218463898,1.53496468067,32.8717803955,-0.251966565847,-0.810762226582,9.79953289032,0,0,0,-3.64886049727,-2.42013814113,-0.144578616126,23.53,-0.00128324590842,-1.96667288917e-05,0.000849674794642,0.0284040383995,0.0934960469604,0.00646729115397,0.40122461319,0.595108032227,-0.789179325104
1586434603.72,-4.17215299606,2.39847207069,33.3324584961,-0.327939391136,-0.657171547413,9.81313610077,0,0,0,-3.66572778047,-2.43489751681,-0.133997245861,23.54,-0.00127092474839,-1.13985961994e-05,0.000854017758247,0.0184504278004,0.0187346693128,0.0513171702623,0.416344642639,0.584990024567,-0.78936958313
1586434603.99,-5.01950788498,2.4651093483,33.8715362549,-0.381419599056,-0.67529052496,10.0377941132,-3.6495,-2.2354,0.490534038313,-3.68073466366,-2.39340476585,-0.201273789589,23.53,-0.00124429323048,5.71361291482e-05,0.000835008361898,-0.0959604978561,0.00396501319483,0.0158371403813,0.42194890976,0.591315984726,-0.779273509979
1586434604.25,-5.15641927719,2.65125656128,33.8244361877,-0.511843025684,-0.69189208746,9.77036857605,0,0,0,-3.70790828224,-2.40471217082,-0.19286313836,23.53,-0.00125172969041,8.21261859468e-05,0.000835865628977,0.0897051841021,0.0124489916489,-0.00774338934571,0.423077106476,0.59290099144,-0.775374412537
1586434604.51,-3.05472922325,2.75840592384,33.821144104,-0.485164523125,-0.523141980171,9.80504894257,0,0,0,-3.72970529221,-2.42505190437,-0.183906626487,23.54,-0.00125327799835,8.20228533493e-05,0.000837764903676,0.132663026452,0.00557098630816,0.00501815369353,0.426288604736,0.562376260757,-0.791359901428
1586434604.76,-2.33457875252,2.85057258606,34.0725288391,-0.352453768253,-0.517142355442,9.9454536438,0,0,0,-3.74148982374,-2.44770622657,-0.169181002465,23.54,-0.00123492449,6.64752433819e-05,0.000856299879612,-0.0427186563611,0.00446494715288,0.0282762609422,0.430327415466,0.545606851578,-0.797912359238
1586434605.02,-4.1565079689,2.90200924873,34.8250045776,-0.41086012125,-0.66165214777,9.91283893585,0,0,0,-3.75862924972,-2.46269807718,-0.15477371275,23.54,-0.00122310131555,7.31772981981e-05,0.000873268910885,-0.137304902077,-0.0061262412928,0.0707833170891,0.437871456146,0.566798686981,-0.786646366119
1586434605.28,-6.11781358719,3.080981493,36.2942390442,-0.529966890812,-0.894171118736,9.85681724548,0,0,0,-3.782102783,-2.47453235616,-0.140792246488,23.55,-0.00122317307729,9.35241571339e-05,0.000887355099873,-0.142642512918,0.0181993506849,0.12069850415,0.45081949234,0.584368467331,-0.768064498901
1586434605.54,-7.6531329155,3.8523709774,38.434879303,-0.619292080402,-1.09677910805,9.74293613434,0,0,0,-3.8040307212,-2.48302507893,-0.128842690938,23.54,-0.00121744290232,0.000121642619316,0.000892246808976,-0.0574570223689,0.0406989939511,0.162657916546,0.476099252701,0.589160203934,-0.746980667114
1586434605.79,-7.32773971558,4.72971200943,40.5622558594,-0.699120044708,-1.09729623795,9.68890094757,0,0,0,-3.81985810319,-2.49324345848,-0.118581808731,23.55,-0.00120214910253,0.000142105435239,0.000890815757789,0.0469682812691,0.0382864922285,0.134126678109,0.504065752029,0.564567327499,-0.743000030518
1586434606.05,-5.75073862076,5.41812896729,41.8238983154,-0.798856914043,-0.961236178875,9.68374061584,0,0,0,-3.83168677917,-2.51158713939,-0.108921026577,23.54,-0.00118441510764,0.00014453901061,0.00088603835648,0.142040669918,0.0355457998812,0.0477066375315,0.523136138916,0.533250331879,-0.749749660492
1586434606.31,-4.41553735733,5.93847322464,41.9914894104,-0.934764921665,-0.816168189049,9.81027507782,0,0,0,-3.84344841673,-2.53468675025,-0.0947043599929,23.55,-0.00117313152926,0.000135744100875,0.000895799055899,0.00390876131132,0.0341432243586,0.00406485097483,0.527631998062,0.512043952942,-0.759059429169
1586434606.57,-5.17902898788,6.36408615112,42.1609535217,-0.993990421295,-0.866679489613,9.82782459259,0,0,0,-3.85653813975,-2.55309508414,-0.0783088413379,23.55,-0.00115990907056,0.000137773959198,0.000910316080476,-0.0585384778678,0.0244649127126,0.0231398306787,0.537676811218,0.521489620209,-0.748850345612
1586434606.83,-6.17947101593,6.76367330551,42.7170982361,-1.1418492794,-0.895013868809,9.79447174072,0,0,0,-3.8773845677,-2.56534974145,-0.0621784654936,23.55,-0.00115769730498,0.000159231804551,0.000923893209817,-0.0801555886865,0.0215416830033,0.0437995418906,0.549318552017,0.528622627258,-0.735287427902
1586434607.09,-6.12607336044,7.12065792084,43.015789032,-1.13768970966,-0.851542234421,9.71221446991,-3.7227,-2.3459,0.481615237616,-3.85403436009,-2.51941805632,-0.146372882386,23.55,-0.0010980211689,0.000214650437363,0.000867703663939,0.0727497041225,0.0241652112454,0.00551044940948,0.557499170303,0.527106761932,-0.730664491653
1586434607.35,-4.36678695679,7.49651432037,42.5865058899,-1.15896332264,-0.685570478439,9.67148971558,0,0,0,-3.8670286166,-2.5352063557,-0.137112367041,23.55,-0.00108227385136,0.000221712208022,0.00086388227346,0.116191074252,0.0247504599392,-0.0498902089894,0.558715581894,0.506037712097,-0.737844228745
1586434607.61,-3.94316935539,7.72427129745,41.6005897522,-1.25184035301,-0.782037913799,9.75244426727,0,0,0,-3.87942203789,-2.55948263075,-0.12431872251,23.56,-0.00107350598231,0.000207201325137,0.000869975876909,-0.0759705975652,0.0201312825084,-0.0738982185721,0.553223133087,0.505230426788,-0.745167255402
1586434607.86,-6.4241604805,7.94252824783,40.485534668,-1.20326554775,-1.2260338068,9.72761917114,0,0,0,-3.88713404236,-2.58157688595,-0.109937921141,23.56,-0.00105360784618,0.000189411654527,0.000878362384562,-0.136807948351,0.0216072481126,-0.0670935958624,0.546386480331,0.545859098434,-0.723179101944
1586434608.12,-8.18050193787,8.2679681778,39.840297699,-1.17538273335,-1.36544060707,9.80725860596,0,0,0,-3.89534663193,-2.5942058027,-0.0897058077173,23.56,-0.00102272259438,0.000191699332832,0.000902524519543,-0.149090975523,0.0311588924378,-0.00888407416642,0.546925067902,0.572320222855,-0.705446958542
1586434608.38,-10.1624040604,8.97378921509,40.2736320496,-1.4484398365,-1.53732097149,9.69907569885,0,0,0,-3.91331339855,-2.60204691171,-0.0705528839235,23.56,-0.0010117352552,0.000214306273151,0.000922248704306,-0.0917349234223,0.056204020977,0.0603215880692,0.558223247528,0.589383363724,-0.682484149933
1586434608.63,-11.1896181107,10.2954568863,41.2274551392,-1.70057439804,-1.74398744106,9.5416097641,0,0,0,-3.93108261426,-2.6126621352,-0.0538661400839,23.56,-0.00100452249708,0.000231313821784,0.000930924583602,-0.118597991765,0.0912463590503,0.104895815253,0.584073066711,0.595242977142,-0.659173727036
1586434608.89,-13.6985120773,11.986000061,43.0909729004,-1.78794658184,-2.34881281853,9.3008480072,0,0,0,-3.93385802219,-2.62869669103,-0.0388268328409,23.56,-0.000971333653488,0.000221452115445,0.000927457837078,-0.27420938015,0.0686237886548,0.17425070703,0.618173837662,0.602835893631,-0.620179414749
1586434609.15,-17.3445014954,13.5676898956,46.0366210938,-2.1233496666,-2.8839609623,9.13430976868,0,0,0,-3.93854401716,-2.64335728091,-0.0208423198954,23.56,-0.00094744088391,0.000216232351775,0.000930892290645,-0.244446232915,0.0379624031484,0.236729830503,0.652892112732,0.613657236099,-0.570662498474
1586434609.41,-17.5933380127,15.13712883,49.6296577454,-2.51190543175,-2.76905989647,9.10035324097,0,0,0,-3.95142332128,-2.65558977968,-0.000564511187459,23.57,-0.000940492362698,0.000228784898729,0.000939786201786,0.0531824491918,0.0250438265502,0.257439017296,0.697712898254,0.583209514618,-0.553004264832
1586434609.66,-14.8643445969,16.5852184296,53.1067276001,-2.7557117939,-2.25506544113,9.29789352417,0,0,0,-3.96477749362,-2.66567245006,0.0249813034218,23.57,-0.000934187283149,0.000249910552801,0.00096639952393,0.144425630569,0.0390296876431,0.22447283566,0.733110189438,0.520126581192,-0.563255548477
1586434609.92,-11.9067058563,18.1060943604,55.7084236145,-3.06491112709,-1.80539000034,9.37320899963,0,0,0,-3.97881166836,-2.68043257661,0.0518772989578,23.57,-0.000936028930779,0.000265948461051,0.000998163640502,0.151122033596,0.0841267630458,0.168402165174,0.762148618698,0.467273950577,-0.567571401596
1586434610.18,-9.18113517761,20.0674953461,57.7951087952,-3.31762504578,-1.3718675375,9.12817287445,0,0,0,-3.98819294371,-2.69699253255,0.0687715291461,23.57,-0.000929116114834,0.000279272514971,0.00100173172419,0.0917958319187,0.113566435874,0.146846324205,0.796024799347,0.409663200378,-0.556294202805
1586434610.44,-8.12863636017,21.7281322479,59.5253601074,-3.53421783447,-1.09062182903,8.90947628021,0,0,0,-3.99732120764,-2.70818565587,0.0785586817167,23.56,-0.000915445496242,0.000306085768053,0.000986555589675,0.00747684482485,0.0799639225006,0.110637225211,0.821696996689,0.379565954208,-0.541873216629
1586434610.69,-7.94214487076,22.7004451752,60.8769302368,-3.71956825256,-1.19458961487,8.99086284637,0,0,0,-4.00282474467,-2.72648769089,0.0945813982931,23.56,-0.000906029935811,0.000313750215525,0.000989598014794,-0.0318758226931,0.0430935919285,0.0817777514458,0.839871168137,0.357563972473,-0.525969743729
1586434610.95,-6.88549280167,23.4571208954,61.947769165,-3.92021989822,-1.11487090588,9.02281284332,0,0,0,-4.00899747896,-2.75259886676,0.113639334867,23.56,-0.000907792175151,0.000308880744515,0.00100065387122,0.102118037641,0.0449169464409,0.063718482852,0.849337339401,0.338257551193,-0.521887779236
1586434611.21,-6.09997367859,24.1431808472,62.5735359192,-4.05178546906,-0.90196031332,9.0342168808,0,0,0,-4.01866231373,-2.77521384775,0.134766256674,23.56,-0.000912849277756,0.000315701528286,0.00101772122081,-0.0715769827366,0.0392830036581,0.0221060607582,0.85776591301,0.321759462357,-0.516169548035
1586434611.47,-8.0610704422,24.5458755493,62.5592041016,-4.03667068481,-1.1120313406,8.82392024994,0,0,0,-4.02754032308,-2.79036608279,0.149553222367,23.56,-0.000907083288549,0.000334951726912,0.00101564802855,-0.119931250811,0.0154120866209,-0.00490620778874,0.86189866066,0.336426973343,-0.500020027161
1586434611.73,-8.83136367798,24.4705429077,62.5172424316,-4.00513553619,-1.29283618927,8.81698322296,0,0,0,-4.03364477021,-2.80819228353,0.165309077097,23.56,-0.000898555875471,0.000345809716252,0.00101426246881,-0.00780150294304,-0.0189438480884,-0.00989735126495,0.860929489136,0.342524528503,-0.493403434753
1586434611.99,-9.29577159882,23.8501491547,62.0063171387,-3.81667137146,-1.43073809147,8.88556861877,0,0,0,-4.0330359981,-2.82488092483,0.18250392662,23.56,-0.000877202680341,0.000348498789171,0.00101783885482,-0.0543527416885,-0.046050556004,-0.0544361881912,0.855724573135,0.356127500534,-0.502914905548
1586434612.25,-10.5404720306,22.6997623444,61.3936004639,-3.60340881348,-1.54357349873,8.86528873444,0,0,0,-4.03474999599,-2.83481786024,0.196822110219,23.55,-0.000851183100155,0.00036426248215,0.00101291149172,-0.0211030263454,-0.0913750231266,-0.0396229363978,0.841872215271,0.375104427338,-0.510422706604
1586434612.51,-9.00680541992,21.1568450928,61.3450431824,-3.53385281563,-1.38848531246,9.09682178497,0,0,0,-4.04358270694,-2.85516561265,0.216297075232,23.55,-0.000849881846415,0.000370473156537,0.00102057032508,0.189514666796,-0.0999443456531,-0.0149186719209,0.829085588455,0.365926742554,-0.542258501053
1586434612.76,-6.57809925079,19.6745929718,61.2079620361,-3.37798523903,-1.04298996925,9.27964115143,0,0,0,-4.05584291959,-2.88017263743,0.237078776443,23.55,-0.000860234198133,0.000372643527723,0.00103402456145,0.118271104991,-0.0941787064075,-0.0348080061376,0.8122382164,0.345309734344,-0.575865745544
1586434613.02,-6.39416980743,18.1893577576,60.558719635,-2.98126006126,-1.00986158848,9.42953205109,0,0,0,-4.06051508263,-2.89785916822,0.260616868904,23.55,-0.000848371969021,0.000376732586552,0.00105640422176,-0.0576932094991,-0.0936485975981,-0.0646859481931,0.793717622757,0.35019826889,-0.599535942078
1586434613.27,-8.09431171417,16.7075691223,59.6962089539,-2.70101213455,-1.26965618134,9.4638376236,0,0,0,-4.06468477705,-2.91156947875,0.284416092055,23.55,-0.000830990130111,0.000384463877498,0.00107804569506,-0.0953167900443,-0.0904809832573,-0.0706378445029,0.773481369019,0.378345012665,-0.608296871185
1586434613.53,-9.35871124268,15.1924819946,58.5195465088,-2.52537822723,-1.45321452618,9.47192573547,0,0,0,-4.07521474384,-2.92581646649,0.307675419805,23.55,-0.00082414854449,0.000396917520353,0.00109552854828,-0.0573225393891,-0.0880103781819,-0.121092073619,0.751571178436,0.404914140701,-0.618206739426
1586434613.79,-10.8036813736,13.5222454071,56.3705825806,-2.36239910126,-1.68820130825,9.35319423676,0,0,0,-4.09479658481,-2.94423034947,0.324139048232,23.55,-0.000833766068512,0.000411253985638,0.00109268680991,-0.0728201270103,-0.0831589251757,-0.175095036626,0.72607588768,0.443870067596,-0.632613658905
1586434614.05,-12.0920171738,11.6683073044,53.9046669006,-2.02342939377,-1.90662276745,9.31576061249,0,0,0,-4.11527592238,-2.96085565389,0.337398646768,23.55,-0.000839205007567,0.000426558130112,0.00108108506232,-0.0298257991672,-0.0938140228391,-0.181221261621,0.691912889481,0.487063884735,-0.640596628189
1586434614.31,-12.2982292175,9.69219303131,51.8211860657,-1.61758732796,-1.98566710949,9.40405464172,0,0,0,-4.13147746742,-2.97506668353,0.351543452253,23.55,-0.000834003318636,0.000437349083519,0.00107423881148,0.0656416788697,-0.114389538765,-0.159662619233,0.657357692719,0.510951042175,-0.659666776657
1586434614.56,-9.60608386993,7.21297883987,49.9257545471,-1.07581758499,-1.53627181053,9.55143451691,0,0,0,-4.14244538026,-2.98274044882,0.362950268834,23.55,-0.000810949231583,0.000450210346833,0.00106729646899,0.315376788378,-0.156311780214,-0.158682957292,0.613412857056,0.503853082657,-0.704984903336
1586434614.82,-4.24867248535,4.29010725021,47.7677688599,-0.649915874004,-0.782474756241,9.77160739899,0,0,0,-4.15204761319,-3.00255423112,0.375458082967,23.55,-0.000798466587725,0.000441778697614,0.00106882188331,0.350303322077,-0.187857210636,-0.170905277133,0.563239574432,0.459492206573,-0.770951747894
1586434615.07,-0.93109446764,1.55632126331,45.6307106018,-0.265186995268,-0.373028606176,9.87516212463,0,0,0,-4.16027991089,-3.03566794175,0.389711059007,23.55,-0.000798229949674,0.000410353180467,0.00107798963034,0.163630634546,-0.179672658443,-0.138320460916,0.513906240463,0.429407835007,-0.822509527206
1586434615.33,0.342501431704,-0.940646708012,44.2707099915,0.102575272322,-0.119201362133,9.93499279022,0,0,0,-4.17420680799,-3.06927110197,0.406977281943,23.55,-0.000806862878943,0.000384070128003,0.00109528576202,0.029617363587,-0.149342805147,-0.0542815849185,0.472701787949,0.422070980072,-0.850623607635
1586434615.59,-0.587242782116,-2.89425897598,44.0331077576,0.344147235155,-0.0959879904985,10.0604543686,0,0,0,-4.20183481778,-3.09481433627,0.43388624763,23.55,-0.000829293237121,0.000384728273284,0.00113242270556,-0.170977085829,-0.116055861115,0.0108758015558,0.436366558075,0.438760519028,-0.8581366539
1586434615.85,-5.49758911133,-4.4190568924,44.3216323853,0.76846665144,-0.883279919624,10.0157232285,0,0,0,-4.2225248483,-3.10854211887,0.462695890958,23.55,-0.000827309146204,0.000392854182767,0.00117211392713,-0.386419415474,-0.0917312428355,0.00719558866695,0.41645860672,0.50993514061,-0.8386490345
1586434616.11,-6.71927547455,-5.55378007889,43.9568061829,1.00465297699,-1.07973384857,9.7742061615,0,0,0,-4.24274769666,-3.12081472085,0.478648639308,23.55,-0.000818917401417,0.000402292730379,0.00118261119539,0.125255271792,-0.0599227957428,-0.0725280642509,0.39618396759,0.535766124725,-0.831935405731
1586434616.37,-2.15578174591,-6.05454111099,42.7230606079,1.08324015141,-0.434824556112,9.7489862442,0,0,0,-4.25727337497,-3.1424148122,0.487458204444,23.55,-0.000811559806423,0.000392079953663,0.00118192003844,0.399607121944,-0.0135079128668,-0.10303376615,0.380869626999,0.482388019562,-0.866646528244
1586434616.63,2.89270877838,-6.61289167404,40.8834228516,1.21180152893,0.327714681625,9.65340328217,0,0,0,-4.26573048084,-3.16951887536,0.488582697037,23.55,-0.000799130462642,0.000367242346153,0.00116955073073,0.250492185354,-0.0750847458839,-0.143112316728,0.361068248749,0.423707962036,-0.906449794769
1586434616.88,6.19107103348,-8.07813072205,38.2781066895,1.35715174675,1.08048939705,9.65097045898,0,0,0,-4.29134576779,-3.18774815674,0.493982698345,23.55,-0.000802336052887,0.000372112345412,0.00116807319121,0.132425740361,-0.119183242321,-0.174324646592,0.315572500229,0.393272399902,-0.931378602982
1586434617.13,7.34119749069,-9.1128988266,35.6966705322,1.42139840126,1.31056451797,9.631524086,0,0,0,-4.32742178079,-3.20827064321,0.501535091347,23.55,-0.000822500965928,0.000383020758537,0.00117100446381,0.00348854879849,-0.0657182335854,-0.151562348008,0.279462099075,0.393890380859,-0.94056224823
1586434617.39,6.47975206375,-9.76199626923,33.7013587952,1.53569686413,1.08358991146,9.67355060577,0,0,0,-4.36014546543,-3.2331910716,0.512036085908,23.55,-0.000842069626508,0.00038173306363,0.00118022938812,-0.13925434649,-0.0684637650847,-0.125271826982,0.25542473793,0.423256635666,-0.939465284348
1586434617.65,3.75389409065,-10.5668401718,31.6492424011,1.69176781178,0.612892627716,9.75669002533,-3.3142,-2.3662,0.507380661851,-4.00363952527,-2.9395336703,0.207052754124,23.55,-0.000524428701004,0.000380764483498,0.00102279138235,-0.230636522174,-0.0387795343995,-0.138037294149,0.229782581329,0.481410741806,-0.922345399857
1586434617.91,1.37016403675,-10.1490011215,29.4035243988,1.67032074928,0.131032958627,9.71621322632,0,0,0,-4.02392636128,-2.95829344503,0.2153555488,23.55,-0.000532341290793,0.000367310315671,0.0010306426492,-0.123590640724,0.0761894732714,-0.161709323525,0.210602998734,0.534252643585,-0.901201725006
1586434618.17,0.83301538229,-8.88105583191,26.7008533478,1.55017864704,0.0158750489354,9.7515296936,0,0,0,-4.03958644635,-2.97398202263,0.223841843878,23.55,-0.00052756415097,0.000350423907205,0.00103817577426,-0.0419881306589,0.0594651475549,-0.194307461381,0.20787191391,0.561429977417,-0.885207891464
1586434618.43,0.836503326893,-8.53614902496,23.6612987518,1.53541982174,0.128346547484,9.87695503235,0,0,0,-4.05788790656,-2.98155031877,0.238597178932,23.55,-0.000516884946444,0.000348497242267,0.00106155873566,-0.0177167411894,0.00160429673269,-0.199334010482,0.187964200974,0.578412771225,-0.884022712708
1586434618.68,1.08324897289,-8.35967350006,21.0727291107,1.55901145935,0.109591856599,9.8747959137,0,0,0,-4.07107482284,-2.98870050349,0.253008543274,23.55,-0.000498851909658,0.000338342514167,0.00108423702562,-0.0471670292318,0.00999067164958,-0.144036516547,0.166329860687,0.591009616852,-0.877910137177
1586434618.94,0.718766510487,-8.29276180267,19.2675514221,1.32162511349,0.0877033919096,9.7060918808,0,0,0,-4.0976637802,-3.00281150936,0.259657707511,23.55,-0.000511666172141,0.000333640203302,0.00108353114585,-0.00137649511453,0.00255685346201,-0.112554825842,0.152995586395,0.6082239151,-0.873798131943
1586434619.2,1.62981677055,-8.25280094147,17.7008342743,1.29935848713,0.188834816217,9.68855857849,0,0,0,-4.12320800017,-3.01975967441,0.265348623642,23.55,-0.000526670871759,0.000321623747514,0.00108073178094,0.0780986770988,-0.00891611073166,-0.105872392654,0.138097763062,0.602306842804,-0.880806446075
1586434619.45,1.41312885284,-8.27425861359,16.5178184509,1.81330549717,0.145411267877,9.85986804962,0,0,0,-4.12272306983,-3.0160776738,0.278737431793,23.55,-0.00047114265816,0.000308587755774,0.0011013911209,-0.141059264541,0.00407528225332,-0.0484284088016,0.125131607056,0.610658884048,-0.88001203537
1586434619.71,-9.70810508728,-8.44948673248,17.2627716064,1.52710080147,-1.37765586376,9.76797008514,0,0,0,-4.15183513983,-3.00538664954,0.297922922773,23.55,-0.000459326891411,0.000344309243561,0.00112892234425,-1.03942060471,-0.0487609133124,0.0892998948693,0.125400304794,0.757877111435,-0.766518354416
1586434619.97,-16.4721565247,-9.47139263153,17.5432453156,1.38985717297,-2.54023504257,9.34528827667,0,0,0,-4.19495593288,-3.00896180848,0.310772551851,23.55,-0.000490754599818,0.000372634795373,0.00113753556627,-0.146321997046,-0.107093170285,-0.0620529130101,0.110862016678,0.849386453629,-0.673905611038
