Timestamp,Roll,Pitch,Yaw,Acc_X,Acc_Y,Acc_Z,USBL_X,USBL_Y,Depth,Est_X,Est_Y,Est_Z,Temp,State_6,State_7,State_8,Gyro_X,Gyro_Y,Gyro_Z,Mag_X,Mag_Y,Mag_Z
1586441960.16,174.415847778,-51.8119621277,176.238296509,0,0,0,0.5568,8.2989,0.597559646672,0.5568,8.2989,0.597559646672,24.51,0,0,0,,,,,,
1586441960.4,175.068893433,-51.5272789001,176.005493164,7.67451524734,0.806437730789,-6.04105377197,0,0,0,0.556799999948,8.29890000164,-0.597559646427,24.48,-8.96079573232e-07,2.8324081005e-05,4.2293142814e-06,-0.0718087032437,-0.023889541626,0.0311113893986,-0.436765909195,0.385654687881,0.5701379776
1586441960.66,174.454742432,-51.9419822693,174.885513306,7.67836284637,0.707715809345,-6.07854509354,0,0,0,0.55680008356,8.29890136675,-0.597559806159,24.46,-5.86184436564e-06,4.07832212799e-05,-1.53425814244e-06,-0.13313741982,0.067662447691,0.104486219585,-0.436939954758,0.374625921249,0.578600168228
1586441960.92,175.76184082,-53.1519737244,172.962554932,7.79136562347,0.0706680417061,-5.7175655365,0,0,0,0.556799464685,8.29890051869,-0.5975620309,24.43,-1.21866408144e-05,3.66342205403e-06,1.39267811919e-05,0.0846095532179,0.113313660026,0.0847496315837,-0.436558008194,0.381309747696,0.568744182587
1586441961.17,177.523590088,-54.191619873,172.886047363,7.64315891266,0.0929261818528,-5.25906324387,0,0,0,0.556793058035,8.29889677171,-0.59758134801,24.41,-4.45650891306e-05,-1.22479974226e-05,6.28887078664e-05,0.140879318118,0.0340349972248,-0.0452935807407,-0.442992448807,0.406098842621,0.54491186142
1586441961.6,178.191970825,-54.1831016541,171.302642822,8.25690841675,0.046292938292,-5.81786441803,0,0,0,0.556775676202,8.29888171426,-0.597591955493,24.35,-1.33803430043e-05,-2.63234220746e-05,5.47849139305e-05,0.042038410902,0.0592537298799,0.141709312797,-0.436383247375,0.407762050629,0.547889232635
1586441961.86,-179.562255859,-54.6651535034,169.48425293,8.2420425415,-0.146167114377,-5.42830657959,0,0,0,0.556728660359,8.29885923106,-0.597604113342,24.32,1.13914764997e-05,-3.71144834358e-05,8.07647902184e-05,0.0439457632601,0.00192150473595,0.0505410172045,-0.431250333786,0.428045511246,0.53292131424
1586441962.12,-179.123184204,-54.4538154602,168.856933594,8.1478061676,0.125770866871,-5.495013237,0,0,0,0.556658636111,8.29887160793,-0.597617279985,24.3,2.85763640841e-05,-1.45990618726e-05,0.000102918700108,-0.0571042336524,-0.0272810459137,0.034748762846,-0.4275431633,0.426671266556,0.540653705597
1586441962.37,-178.77003479,-54.5036277771,167.727096558,8.1315574646,0.111791826785,-5.62423753738,0,0,0,0.556580557889,8.29890342801,-0.597615839343,24.28,4.36096752177e-05,1.02859772383e-05,0.000110662845909,-0.0447675623,0.0443883240223,0.0909127369523,-0.420860290527,0.423374414444,0.548645973206
1586441962.8,-178.116195679,-55.3423194885,165.655914307,8.04301071167,-0.175993263721,-5.338555336,-0.3441,8.1879,0.575758133858,0.556413855303,8.29890674403,-0.597688363013,24.22,4.10515151023e-05,1.10910891368e-05,0.000137390705405,0.0324510075152,-0.100596249104,0.0207833945751,-0.421682834625,0.427696466446,0.546277523041
1586441963.06,-177.709564209,-53.9047927856,165.552520752,8.00885486603,-0.104962125421,-5.74568367004,0,0,0,0.556295257229,8.29894655484,-0.597694124079,24.2,4.96150526818e-05,2.48085155539e-05,0.000140792466106,-0.0190854072571,-0.138369217515,-0.00604093074799,-0.410201787949,0.436825990677,0.558796167374
1586441963.32,-178.165802002,-52.3814315796,165.297225952,7.97662591934,0.35221773386,-6.08908033371,0,0,0,0.55614801272,8.29916637267,-0.597582917196,24.18,7.18296530668e-05,8.43357498671e-05,0.000129650927084,-0.0880390480161,-0.120452068746,0.0766508281231,-0.393870830536,0.427673578262,0.585183620453
1586441963.57,-176.614944458,-51.4932899475,162.588226318,7.82540512085,-0.261504381895,-6.11851644516,0,0,0,0.555983823343,8.29924132798,-0.597511889036,24.16,8.78487329744e-05,9.52546539431e-05,0.000127554181852,-0.0193029642105,-0.0410139672458,0.197020947933,-0.369355201721,0.436305522919,0.601152658463
1586441963.99,-174.52494812,-50.3545951843,159.591629028,7.65267896652,-0.801656663418,-6.1585559845,0,0,0,0.555684944184,8.29917303672,-0.597510701604,24.11,9.85579409538e-05,7.23994928152e-05,0.000135879037985,0.006095320452,0.0360630489886,0.0199161469936,-0.342569589615,0.438551664352,0.620198011398
1586441964.26,-173.539260864,-50.6250076294,159.202697754,7.42955780029,-1.03701090813,-5.7376332283,0,0,0,0.555348414881,8.29900456135,-0.597872922806,24.09,8.09032284094e-05,3.45246774554e-05,0.000186370231426,0.0641755759716,-0.0151008395478,-0.0118315238506,-0.349946260452,0.462625265121,0.605925559998
1586441964.52,-174.031677246,-50.2791175842,159.976135254,7.62097263336,-0.214498251677,-6.08039045334,0,0,0,0.554933590833,8.29936451342,-0.597855846909,24.08,8.90861866376e-05,8.405740184e-05,0.000204147424826,-0.0818908289075,-0.0365763902664,-0.0026062130928,-0.3522336483,0.476633071899,0.606771469116
1586441964.77,-174.022033691,-50.5673332214,158.011566162,7.79351377487,-0.317798942327,-6.50214385986,0,0,0,0.554743157687,8.29964310907,-0.597459356076,24.06,0.000113377124013,0.000121776021824,0.000169689315585,-0.166513055563,0.112373404205,0.209272682667,-0.342081546783,0.47744011879,0.619045972824
1586441965.2,-171.253860474,-51.9353713989,148.647766113,7.85986185074,-0.72420668602,-6.16491270065,0,0,0,0.554334894336,8.29986305047,-0.597082167581,24.01,0.000128760958649,0.000144411544985,0.000148339527547,-0.057789683342,0.0427238680422,0.146561101079,-0.316615581512,0.458176612854,0.644818544388
1586441965.46,-169.146835327,-52.719039917,146.072036743,7.57120084763,-0.90753698349,-5.50487565994,-0.7456,8.1405,0.58764986812,0.553711335006,8.30030568375,-0.597397108386,24.01,0.000105485418501,0.000169797237158,0.00019254218785,0.0594101920724,0.0883661434054,0.114078089595,-0.315280199051,0.466082334518,0.630172967911
1586441965.71,-165.887176514,-52.6198883057,144.14680481,7.44888544083,-1.05099916458,-5.32331037521,0,0,0,0.552985036034,8.30118302904,-0.597869902163,23.99,6.46008593805e-05,0.000216753314324,0.000245711994046,0.203984245658,-0.057923797518,0.0976122915745,-0.305495738983,0.499400138855,0.611177206039
1586441965.97,-161.773681641,-51.0944252014,142.651199341,7.85453176498,-1.51991438866,-5.69281101227,0,0,0,0.551997165017,8.30177134424,-0.597485797335,23.97,9.01592231295e-05,0.000264681549211,0.000264673626289,0.275353401899,-0.119660794735,0.148686036468,-0.274909496307,0.543400764465,0.585479259491
1586441966.4,-161.236694336,-49.0002212524,146.508453369,7.50660228729,-2.32738232613,-5.96452856064,0,0,0,0.550988357518,8.30168111387,-0.597630995003,23.93,0.000102072971005,0.000234035770515,0.000280384881332,-0.278669595718,-0.182065337896,-0.239208355546,-0.260926485062,0.575517892838,0.559329032898
1586441966.66,-169.808807373,-47.5081253052,151.119750977,7.43393754959,-1.37114298344,-6.90496253967,0,0,0,0.550966546747,8.30129247297,-0.597100512459,23.92,0.000125754912023,0.0002102108194,0.000234689176105,-0.576043188572,-0.16665610671,-0.197754845023,-0.269582748413,0.502991676331,0.632829666138
1586441966.91,-178.841308594,-46.7197914124,154.379638672,7.29776239395,-0.648185074329,-6.84705018997,0,0,0,0.550805939017,8.30034611906,-0.597252589636,23.91,0.000144213424663,0.000148379930242,0.000220146079714,-0.537590682507,-0.0198632478714,-0.183230638504,-0.290611982346,0.406937122345,0.705042362213
1586441967.17,174.08013916,-46.4999847412,157.682876587,7.17375802994,0.475196063519,-6.12219142914,0,0,0,0.549259889459,8.30007862469,-0.598354338719,23.89,0.000150861011141,0.000121482296972,0.000292586460908,-0.307220160961,-0.0418901406229,-0.200660526752,-0.313733816147,0.321898460388,0.746830224991
1586441967.59,170.787277222,-46.4260177612,155.337020874,7.09349822998,1.14154434204,-6.13380813599,0,0,0,0.547097904895,8.30043963852,-0.599481115574,23.86,0.000148799001387,0.000128671492548,0.000359481907977,0.131278499961,-0.0266090072691,0.283322513103,-0.310458898544,0.244009256363,0.805827617645
1586441967.85,176.241485596,-45.8387908936,151.238128662,6.95296287537,0.631133019924,-6.2923951149,0,0,0,0.545180824279,8.30117283374,-0.600644796746,23.85,0.000137960627115,0.000151296270252,0.000425042792773,0.224233448505,-0.145748272538,0.218661904335,-0.276475906372,0.295344352722,0.789589881897
1586441968.11,179.93208313,-43.785736084,148.047210693,6.84011745453,0.100255422294,-7.14929008484,-0.9969,7.9813,0.550983687479,0.54373123345,8.30132891016,-0.600604618144,23.85,0.000157880691193,0.000165052777718,0.000431415816427,-0.0158324837685,-0.192609459162,0.161480173469,-0.233180522919,0.342406988144,0.794853210449
1586441968.36,-179.760345459,-42.1476211548,146.277709961,6.97692394257,-0.109539248049,-7.51674747467,0,0,0,0.542782628911,8.30051713488,-0.599651492148,23.83,0.000206779133697,0.00015514320455,0.000401292791748,-0.099700704217,-0.0985369309783,0.081979483366,-0.202582836151,0.345026731491,0.810379266739
1586441968.79,173.630889893,-40.0417480469,150.306350708,6.2855386734,0.583024203777,-7.29233789444,0,0,0,0.541097349513,8.29983644237,-0.600999682388,23.79,0.000203168694631,0.000123353471542,0.000423395764261,-0.101852424443,-0.0501811541617,-0.180432200432,-0.205228090286,0.276090860367,0.847869157791
1586441969.05,171.410217285,-39.7315864563,152.523422241,6.4114780426,1.04485487938,-7.49024438858,0,0,0,0.539985313442,8.29927108531,-0.601057116681,23.79,0.00022079468739,0.000112829150502,0.000419838962362,-0.0871673300862,0.0370033159852,-0.111444316804,-0.209404468536,0.244518041611,0.850079298019
1586441969.3,168.499389648,-40.5310058594,154.249160767,6.57462835312,1.37753975391,-7.24885749817,0,0,0,0.53844229557,8.2984319583,-0.601192186396,23.78,0.000245993644984,9.87655240051e-05,0.000427543185485,-0.239543646574,0.118009023368,-0.0886291489005,-0.226883649826,0.204631567001,0.852938890457
1586441969.56,163.891082764,-41.7912521362,155.97164917,6.68943691254,2.09992980957,-6.80888223648,0,0,0,0.536133297181,8.29831272569,-0.601639172118,23.77,0.000265170538802,0.000107725550256,0.000455929006347,-0.348860114813,0.129885226488,-0.0702828392386,-0.257818698883,0.140562772751,0.855540752411
1586441969.99,160.894119263,-41.873462677,157.476547241,6.75097322464,2.39243030548,-6.49285745621,0,0,0,0.531970657302,8.29767041387,-0.602961572461,23.73,0.000291296331569,0.000107777759945,0.000509733081668,0.103867799044,-0.104719407856,-0.037428740412,-0.280877113342,0.0995271205902,0.869836568832
1586441970.25,161.383239746,-40.3231582642,157.595321655,6.43274641037,2.58906602859,-6.46772670746,0,0,0,0.527631995563,8.2981667414,-0.605077738999,23.73,0.000302040067306,0.000134081117725,0.000591461846704,-0.00957995746285,-0.168588757515,-0.0322908200324,-0.25838971138,0.102538108826,0.882206678391
1586441970.51,161.596679688,-38.0137786865,156.413574219,6.29386329651,2.69805169106,-7.08249425888,0,0,0,0.523767574246,8.2986449412,-0.605399733151,23.71,0.000334972108668,0.000167972183386,0.000624916177128,-0.0825196504593,-0.238914817572,0.0572137646377,-0.215771198273,0.0963945388794,0.897760391235
1586441970.76,161.94934082,-35.9537849426,154.230529785,6.09650325775,2.59032344818,-7.48722982407,0,0,0,0.520360924308,8.29833972857,-0.604888828253,23.71,0.000379257242957,0.000185012668518,0.000633597987728,-0.0812262445688,-0.205294832587,0.110592707992,-0.173748254776,0.0963001251221,0.903428554535
1586441971.2,161.328659058,-33.096496582,148.016036987,5.44197797775,2.61590099335,-7.33964014053,0,0,0,0.515027695371,8.29724581876,-0.60777540208,23.68,0.000390368506559,0.000182811624117,0.000693918905486,-0.194183021784,-0.166557729244,0.0921569988132,-0.0877940654755,0.0380442142487,0.944589614868
1586441971.46,160.336288452,-31.6962966919,145.893096924,5.20323181152,2.93990755081,-7.6080827713,0,0,0,0.511425520506,8.29728138782,-0.609463747128,23.68,0.000396636256548,0.000200357310214,0.000728291065124,-0.197278007865,-0.148324668407,0.122254364192,-0.0522584915161,0.00394916534424,0.956166505814
1586441971.71,159.554626465,-31.6036586761,143.820068359,5.13782691956,2.9058842659,-7.7194609642,0,0,0,0.508909442954,8.29659441826,-0.610987774141,23.67,0.000395889580539,0.000198448311726,0.000743462915783,-0.117482244968,0.019562991336,0.154996678233,-0.0377736091614,-0.0281455516815,0.960028648376
1586441971.97,159.484191895,-32.6888160706,142.528137207,5.38987445831,2.99125885963,-7.50214910507,0,0,0,0.504956523407,8.29621611901,-0.612587195403,23.65,0.000408048197062,0.000211585117236,0.000775214221864,-0.0553086474538,0.0631965771317,0.09560957551,-0.0442178249359,-0.0396385192871,0.956961631775
1586441972.4,159.016204834,-36.0261230469,141.453094482,6.00758218765,2.78360319138,-7.27414798737,0,0,0,0.499289904015,8.29394171792,-0.613688409799,23.62,0.00044052143764,0.000203446870694,0.00079397227327,0.0789545550942,0.020927939564,0.0968493670225,-0.0901229381561,-0.0644915103912,0.949501991272
1586441972.66,160.371780396,-36.321346283,140.356719971,6.13049507141,2.37205147743,-7.53114509583,0,0,0,0.496388551013,8.29016572722,-0.612781563305,23.62,0.000484543323733,0.000163976225447,0.00078228341116,-0.00710785388947,0.00327155017294,0.0522218644619,-0.0894696712494,-0.0523254871368,0.941017627716
1586441972.91,159.271087646,-36.8160057068,140.818328857,6.20949029922,2.31920099258,-7.58679866791,0,0,0,0.494894369996,8.28488438629,-0.610878170335,23.62,0.000530286289347,9.95682152825e-05,0.000748889795271,-0.121818497777,0.107546910644,-0.0728264525533,-0.0978565216064,-0.0661811828613,0.937940835953
1586441973.17,156.65171814,-37.7734375,143.056167603,6.09229040146,2.73787617683,-7.06478786469,0,0,0,0.492626486104,8.28078846773,-0.611860108186,23.61,0.00054153593307,5.24011500928e-05,0.000756820920354,-0.10061711818,0.144622474909,-0.128862276673,-0.118917942047,-0.0910210609436,0.934602499008
1586441973.6,152.109008789,-40.4204063416,146.207351685,6.42902612686,3.62121677399,-6.03602218628,0,0,0,0.483606377709,8.27904081133,-0.615906123801,23.57,0.000550784496022,7.02928496149e-05,0.000837254798156,0.00282302522101,-0.0445887483656,0.0687770545483,-0.174870014191,-0.141267061234,0.912762880325
1586441973.86,153.416427612,-39.7949485779,145.022888184,6.48580646515,3.44463062286,-6.62478065491,0,0,0,0.478203306787,8.27750947061,-0.615906158553,23.58,0.00057985307334,8.02974781009e-05,0.000854036824877,0.0684775412083,-0.0936284586787,0.0178791582584,-0.156800746918,-0.133087158203,0.913996696472
1586441974.12,154.989501953,-39.1790428162,144.608139038,6.41486930847,3.23557066917,-6.81366014481,0,0,0,0.472979663983,8.27546152034,-0.615631838044,23.57,0.000610552106775,8.30370696746e-05,0.000865451837245,0.160261228681,-0.0255718789995,-0.00765919685364,-0.147552013397,-0.113140106201,0.917388439178
1586441974.38,156.875961304,-39.1295013428,145.142211914,6.29345417023,2.91442632675,-6.76543426514,0,0,0,0.467612728804,8.272603754,-0.617543875053,23.56,0.000624863821372,7.21840634494e-05,0.000899261097636,0.196618616581,0.0351645089686,-0.0566393211484,-0.149466753006,-0.079391002655,0.916321754456
1586441974.8,155.457275391,-38.968296051,147.619659424,6.20842552185,3.22883939743,-6.97089576721,0,0,0,0.461709781989,8.27105395272,-0.618061794878,23.53,0.000630087551463,8.08261590897e-05,0.000894767968376,-0.116561368108,0.0122718540952,-0.0109493741766,-0.157443284988,-0.076785326004,0.911478757858
1586441975.06,154.005371094,-39.4414367676,148.137802124,6.36118936539,3.40583777428,-6.87043380737,0,0,0,0.457199903204,8.27026110209,-0.617052177881,23.54,0.000648494037258,9.31043674446e-05,0.000886142324089,-0.0863030552864,0.0739045515656,-0.00450760126114,-0.168612957001,-0.0963525772095,0.907424926758
1586441975.32,153.085174561,-40.1968345642,148.699829102,6.61811971664,3.18033242226,-6.61892127991,0,0,0,0.451732158483,8.2651523229,-0.616056469465,23.53,0.000690123991311,6.18041108154e-05,0.000895610229051,-0.0250771641731,0.0590406358242,-0.0178724508733,-0.180701971054,-0.107780456543,0.901360988617
1586441975.57,151.774749756,-40.1981582642,149.838775635,6.64461088181,3.4733839035,-6.49350261688,0,0,0,0.44467738148,8.26121263899,-0.614893476167,23.52,0.000735812690038,5.11984480091e-05,0.000911896489453,-0.0974878668785,0.006095320452,-0.0960051864386,-0.184328794479,-0.121223688126,0.900142669678
1586441976.0,148.904769897,-41.9832687378,154.980422974,6.57828092575,3.64735770226,-5.8122677803,-2.2502,6.4824,0.527200218955,0.416930620501,8.24517339488,-0.619017238656,23.49,0.000871183532961,2.54064109739e-06,0.00109227161183,0.147677227855,0.112050034106,-0.133772194386,-0.23285484314,-0.13195514679,0.876998901367
1586441976.26,147.124954224,-41.7736244202,158.149887085,6.44637107849,4.18857574463,-5.93698549271,0,0,0,0.409493069367,8.2461726718,-0.622115140975,23.49,0.000857376310498,3.47382714713e-05,0.00112345589582,-0.100784003735,0.0969432368875,-0.198006629944,-0.246564149857,-0.136924982071,0.866295576096
1586441976.52,142.619659424,-41.5719223022,161.893341064,6.44751167297,4.70671129227,-5.83083724976,0,0,0,0.40350113727,8.24845872854,-0.623002426722,23.49,0.000847554931088,7.21074482285e-05,0.00112378936976,-0.228448227048,0.167562812567,-0.201249152422,-0.262867212296,-0.184227466583,0.853577852249
1586441976.77,135.491790771,-42.0915107727,166.996566772,6.67734956741,5.04988193512,-5.37555074692,0,0,0,0.399358739071,8.24688612494,-0.620484165339,23.49,0.000862310884063,6.37587475947e-05,0.00109624315516,-0.457257091999,0.325936883688,-0.261934161186,-0.297183990479,-0.259792566299,0.822411060333
1586441977.2,97.5170516968,-35.0088806152,-173.445632935,5.89049911499,7.61243629456,-0.948784291744,0,0,0,0.388754938014,8.2378884768,-0.620219423574,23.46,0.000901804053812,9.40369951221e-06,0.0011117301293,-0.428791433573,0.190905511379,-0.410670101643,-0.327845096588,-0.706005573273,0.555409669876
1586441977.46,92.5125656128,-31.1098690033,-170.321380615,4.98023414612,8.49573516846,-0.0698850005865,0,0,0,0.380532511108,8.23615167126,-0.625304520402,23.46,0.00088782360309,2.48938675296e-05,0.00115721245618,-0.253479212523,0.201036781073,-0.294631749392,-0.301050662994,-0.765506029129,0.504764080048
1586441977.72,88.3428497314,-28.2951602936,-167.991119385,4.41806697845,8.6080160141,0.956481218338,0,0,0,0.370154881329,8.23019399541,-0.636158872288,23.45,0.000851750277788,2.03139608737e-05,0.00126556495232,-0.271400809288,0.120344027877,-0.208109661937,-0.29935002327,-0.810996294022,0.470129489899
1586441977.97,85.9224319458,-25.9939861298,-167.161346436,4.1915268898,8.90240955353,1.00357031822,0,0,0,0.361291744039,8.2265105406,-0.6422442599,23.45,0.000834691447627,3.62763811669e-05,0.00132340797264,-0.0962957888842,0.0452868752182,-0.171253085136,-0.27841091156,-0.853576421738,0.425848245621
1586441978.4,82.0003814697,-16.4756355286,-165.411117554,2.64303398132,9.66653251648,1.45897638798,0,0,0,0.351574964463,8.22311748891,-0.647037618069,23.42,0.000812669697315,9.04280299206e-05,0.00134649231059,-0.245544359088,0.0505752973258,-0.386175572872,-0.167362451553,-0.926791906357,0.37170624733
1586441978.66,79.2666549683,-12.8345479965,-166.00894165,2.25752711296,9.54372310638,1.93696117401,-2.9066,8.2401,0.283419666581,0.306971727277,8.21281645888,-0.647388587378,23.43,0.00101474486851,0.000172579376783,0.00150688224012,-0.230920359492,-0.0128626842052,-0.259877830744,-0.112720012665,-0.953819274902,0.334577560425
1586441978.92,76.8893280029,-10.6919546127,-166.741973877,2.03354644775,9.31678009033,2.00679898262,0,0,0,0.301112745428,8.20673003649,-0.643673421862,23.43,0.00104787815174,0.000160745471249,0.00147836787281,-0.22347125411,-0.000309944181936,-0.126852110028,-0.0783081054688,-0.979969263077,0.301545619965
1586441979.18,75.5683822632,-10.2347917557,-166.008010864,1.84966301918,8.78421401978,2.18069314957,0,0,0,0.299382865842,8.19501137273,-0.63812120726,23.43,0.00106438994759,7.13310187095e-05,0.00144263085992,-0.0319942869246,0.13627037406,0.0571541599929,-0.0736820697784,-0.989223003387,0.281460285187
1586441979.6,83.7486419678,-13.1832017899,-162.105453491,1.84359622002,9.62149906158,1.50927782059,0,0,0,0.289683533952,8.18405139301,-0.649163885775,23.39,0.00100148291186,9.08511639736e-05,0.00151684245689,0.305754691362,-0.0716358423233,0.137456506491,-0.156378030777,-0.918889760971,0.394366025925
1586441979.86,86.9608612061,-14.2604560852,-163.064590454,2.36200451851,9.48286151886,0.764416456223,0,0,0,0.28139654097,8.17548361807,-0.653738159205,23.4,0.000992401171523,8.83866427994e-05,0.00155802456459,0.243235424161,-0.0694304704666,0.0342570282519,-0.170749664307,-0.889442920685,0.444403648376
1586441980.12,89.0207748413,-13.1006593704,-163.101730347,2.47169089317,9.6167640686,0.427633106709,0,0,0,0.267703690392,8.16670367489,-0.656486617742,23.4,0.00103168492187,9.7921389702e-05,0.00159993014982,0.0422351099551,0.0455506257713,-0.271467864513,-0.156005859375,-0.873594522476,0.472791433334
1586441980.38,85.1204376221,-8.15848255157,-162.136871338,1.81697273254,9.91857528687,0.943291306496,0,0,0,0.252345278717,8.16053811344,-0.657401954954,23.39,0.00109958960204,0.000136368861594,0.0016182957173,-0.507472515106,0.171271726489,-0.466170907021,-0.100817680359,-0.919060945511,0.423195838928
1586441980.8,77.3640365601,0.367870539427,-152.43196106,-0.0854784697294,9.45004844666,2.23465824127,0,0,0,0.244981093788,8.144484164,-0.659522879035,23.37,0.00109573490409,0.000115854062447,0.00163228658657,0.00377669977024,0.441088557243,-0.0129848746583,-0.0584173202515,-0.989497423172,0.282369375229
1586441981.06,77.8470306396,1.35381996632,-147.62588501,-0.259313672781,10.2179355621,2.05521059036,0,0,0,0.239801481168,8.14372203653,-0.666939553856,23.37,0.00109109777721,0.000218089417855,0.00163035684796,-0.0559195950627,0.411281734705,0.0132568180561,-0.0858504772186,-0.995144605637,0.270357131958
1586441981.32,66.4814987183,3.70215201378,-143.835983276,-1.54169094563,9.40596199036,4.49924707413,0,0,0,0.245884341802,8.13354155671,-0.683353989692,23.37,0.000942213093514,0.000287845330686,0.001727048484,-1.73157119751,0.269720941782,-0.099775262177,-0.069943189621,-1.04231905937,0.073704957962
1586441981.57,47.9860496521,5.2686548233,-142.697647095,-1.56367850304,6.4868183136,6.37072753906,0,0,0,0.260695606265,8.11955214785,-0.675680602683,23.37,0.000833329204712,0.000160468362085,0.00169906466794,-1.34010958672,0.0938065722585,-0.0820026099682,-0.0281667709351,-1.03951048851,-0.25620675087
1586441982.0,11.9897785187,14.7878875732,-151.273040771,-2.55154323578,2.28614997864,8.89013957977,0,0,0,0.263953178226,8.12086833988,-0.66233639558,23.35,0.000825593073048,0.000212804942067,0.00163380676155,-1.26655602455,0.293065041304,-0.593921840191,0.215751886368,-0.763697624207,-0.764632940292
1586441982.26,-4.90858268738,19.4256629944,-157.110412598,-3.10204720497,-1.34391903877,9.17350769043,0,0,0,0.260927245181,8.11347490465,-0.645447274748,23.35,0.000852445713965,0.000120632648033,0.0016255068947,-1.22099149227,0.409668207169,-0.394323736429,0.341059446335,-0.537324666977,-0.905143022537
1586441982.52,-15.7572975159,23.0565719604,-161.413452148,-3.53173398972,-3.08816409111,9.1007270813,0,0,0,0.249263577223,8.10112032909,-0.629372554968,23.35,0.000904312234986,1.40559038646e-05,0.00169368077351,-0.428907573223,0.314146995544,-0.19876511395,0.426668167114,-0.368953227997,-0.951189517975
1586441982.78,-18.8601722717,24.887556076,-164.329360962,-3.99419522285,-3.1447250843,8.89036083221,0,0,0,0.240579977637,8.09362041239,-0.618175455556,23.35,0.000926819842113,-3.08298146797e-05,0.00177150519696,-0.00122934579849,0.123857729137,-0.138890743256,0.475738525391,-0.324122667313,-0.943891048431
1586441983.2,-18.0683879852,22.7557277679,-165.679580688,-3.95379281044,-3.38554763794,8.06916713715,0,0,0,0.248840681932,8.1007606127,-0.593929069979,23.32,0.000900080644438,-0.000129170870818,0.00168059338915,-0.0368103384972,0.0181637704372,0.00485405372456,0.462754964828,-0.337309837341,-0.945670604706
1586441983.46,-19.8346309662,23.4818458557,-166.47869873,-4.06279850006,-3.38758563995,8.88908576965,0,0,0,0.247354973205,8.09646543018,-0.58342898613,23.33,0.000873840500379,-0.00018602983453,0.00175216240877,-0.266346365213,0.155416876078,-0.0641793087125,0.477181911469,-0.311946392059,-0.945407629013
1586441983.71,-24.3004188538,25.2991771698,-167.613616943,-4.23201227188,-4.15852737427,8.75230979919,0,0,0,0.241241080825,8.08913467853,-0.571104164874,23.33,0.000866957827126,-0.000272848596997,0.00186561302692,-0.312830507755,0.178619489074,0.0562004856765,0.509842395782,-0.245005846024,-0.94590473175
1586441983.97,-25.1539649963,27.7733802795,-166.177017212,-4.4429473877,-3.83029031754,8.23258495331,-2.5842,6.2933,0.256663264491,0.153652078191,8.055833302,-0.536533167321,23.32,0.00121794449098,-0.000342368214765,0.00212210326342,-0.0580355636775,0.14835819602,0.305213838816,0.527393817902,-0.233083963394,-0.94007396698
1586441984.4,-12.2265110016,32.034992218,-151.26222229,-4.95581531525,-1.89261436462,7.76156997681,0,0,0,0.150697371466,8.06024718765,-0.509243146236,23.29,0.00126074834588,-0.000364901093808,0.00205775906368,0.493943065405,-0.310449361801,0.554349422455,0.465236663818,-0.394726991653,-0.921698093414
1586441984.66,-0.830644071102,28.4585018158,-142.5625,-5.32505989075,-0.450624793768,8.51849269867,0,0,0,0.168446748503,8.0607482344,-0.498789877918,23.3,0.00114975155402,-0.000421732622669,0.00203949242855,0.710916101933,-0.483082413673,0.670434057713,0.356972932816,-0.535927534103,-0.901074886322
1586441984.91,11.5632171631,20.514831543,-134.823928833,-4.26359605789,1.54856848717,8.78524494171,0,0,0,0.190861402177,8.06120866376,-0.492225843838,23.29,0.0010083939086,-0.000473324370157,0.00200213851152,0.80402380228,-0.708379209042,0.685653328896,0.17964220047,-0.695686101913,-0.84535741806
1586441985.17,19.6270065308,11.9770154953,-130.73046875,-2.3664727211,3.08018708229,8.88727474213,0,0,0,0.19775962898,8.05743523277,-0.483349365891,23.29,0.000951604014683,-0.000498717710385,0.00197519893949,0.210149616003,-0.502750456333,0.323814213276,0.0183527469635,-0.785314321518,-0.763034582138
1586441985.6,3.59093403816,9.16855716705,-132.02532959,-1.40943348408,-0.273584514856,9.98592090607,0,0,0,0.181392277668,8.04502526663,-0.451406538277,23.26,0.000977449216909,-0.000654264374453,0.00203014653541,-0.592853188515,0.146218419075,-0.150138184428,-0.00158524513245,-0.582198143005,-0.928093671799
1586441985.86,-1.28615403175,10.5556249619,-134.185958862,-1.73783671856,-0.654252648354,9.56053066254,0,0,0,0.174040897553,8.04338912108,-0.432948069015,23.27,0.000987687503869,-0.00073185135509,0.00201463350251,-0.279517531395,0.0778682753444,-0.20379576087,0.0348072052002,-0.518428325653,-0.965502738953
1586441986.12,-4.13217163086,11.2618980408,-137.28755188,-2.46718549728,-0.741788029671,9.27098369598,0,0,0,0.188135746989,8.05153426161,-0.425785726072,23.27,0.000891501858101,-0.000740604228997,0.00195674784121,-0.254596799612,0.0775568187237,-0.298991799355,0.0731599330902,-0.486382246017,-0.982763290405
1586441986.38,-7.9592757225,11.8537015915,-141.377746582,-2.05882668495,-1.23335313797,9.05878067017,0,0,0,0.188572999774,8.05856111577,-0.415983047687,23.26,0.000884494715689,-0.000723284576908,0.00187583260272,-0.282463490963,0.100848846138,-0.3440335989,0.111735343933,-0.446080684662,-1.00356960297
1586441986.8,-12.6778020859,15.4299249649,-149.573364258,-2.53144717216,-2.16934514046,9.36059474945,0,0,0,0.178399208624,8.06139180408,-0.392038856339,23.24,0.00089825874361,-0.000739912765845,0.00189888812556,0.110099479556,0.215890303254,-0.150798276067,0.229015111923,-0.395572185516,-1.00582432747
1586441987.06,-12.2817935944,16.6972026825,-152.182434082,-2.78420233727,-1.9743822813,9.44328975677,0,0,0,0.172090641721,8.06136848254,-0.376380302359,23.25,0.000904069296898,-0.000735152388972,0.00194504112782,0.0885538831353,0.0754050910473,-0.206531599164,0.267047643661,-0.408122301102,-0.992919921875
1586441987.32,-11.4480381012,16.3792037964,-154.733047485,-2.70835995674,-2.27730822563,9.56982898712,0,0,0,0.161742201937,8.06199749118,-0.355020174203,23.25,0.000913821568384,-0.000809219889784,0.00200629746812,0.152275726199,-0.0329941548407,-0.242944091558,0.284161567688,-0.42416882515,-0.983220815659
1586441987.58,-10.9571762085,15.2545309067,-157.984375,-2.80668449402,-1.7692592144,9.41579914093,0,0,0,0.165094288001,8.0672600871,-0.342940919123,23.24,0.000873198558524,-0.00080360079326,0.00202807450445,0.0348515808582,-0.05367994681,-0.297228991985,0.294697761536,-0.444611787796,-0.976377010345
1586441988.0,-11.7501878738,16.7868061066,-161.746170044,-2.7949616909,-2.14281892776,9.21972179413,0,0,0,0.156432057827,8.07665765322,-0.316624470618,23.22,0.000880062561593,-0.000845698340064,0.00203142885499,-0.12782664597,0.0551469661295,0.0929675996304,0.347144365311,-0.438416957855,-0.957062005997
1586441988.26,-12.0753679276,16.8952827454,-160.877105713,-2.77194070816,-1.99778902531,8.69565868378,-2.4947,6.4308,0.211078283153,0.020898927859,8.03897795453,-0.250015172783,23.22,0.00134526833512,-0.000882485882024,0.00206457364205,-0.0260561741889,-0.00272542308085,0.0530444160104,0.341530323029,-0.431773900986,-0.961411714554
1586441988.52,-13.7808990479,18.369972229,-160.715881348,-2.66414093971,-2.07487678528,8.80168914795,0,0,0,0.00171397687001,8.04112054648,-0.233225901702,23.23,0.00142157558684,-0.000855153412426,0.00201812270951,-0.295126408339,0.288001418114,0.0566564500332,0.356230974197,-0.404127597809,-0.969219684601
1586441988.78,-18.0122108459,23.3181838989,-161.563537598,-4.34998750687,-2.98482561111,8.79258346558,0,0,0,0.0116720801242,8.05284557976,-0.218202173683,23.21,0.00133804034975,-0.000892386468691,0.00205999687174,-0.218577697873,0.430062353611,0.0481396950781,0.427633285522,-0.342490911484,-0.96507692337
1586441989.2,-17.6428604126,32.0845031738,-163.807891846,-5.21553850174,-2.6930243969,7.70386886597,0,0,0,0.00828489857509,8.06938775736,-0.193138323954,23.2,0.00133774399217,-0.000924649831481,0.00201866000253,0.319070339203,0.178358718753,0.0687994137406,0.548450946808,-0.353061676025,-0.888826608658
1586441989.46,-14.1891431808,34.0220718384,-163.392227173,-5.44466209412,-2.09110331535,7.40720129013,0,0,0,0.00541095328626,8.08166733525,-0.18151581918,23.21,0.00134717287851,-0.000942847792823,0.00192883433207,0.217295482755,0.133389979601,0.105080761015,0.566600322723,-0.409168720245,-0.853341817856
1586441989.72,-10.0371398926,35.8057632446,-161.334732056,-5.65150690079,-1.58737921715,7.3985619545,0,0,0,-0.000382063381975,8.09272131209,-0.168008309613,23.21,0.00136418390942,-0.000980401776081,0.00184600560204,0.296869158745,0.132309675217,0.261933416128,0.566761016846,-0.463538646698,-0.82644534111
1586441989.98,-3.69236660004,38.7466430664,-157.447006226,-6.03680038452,-0.542650163174,7.65122556686,0,0,0,-0.00579965655904,8.09469699202,-0.147963259288,23.2,0.00138286874839,-0.000989434375572,0.00184774540305,0.368946105242,0.334406673908,0.320100098848,0.570286512375,-0.540287733078,-0.770145654678
1586441990.4,28.7134017944,50.8063545227,-141.313064575,-7.57077169418,2.89018034935,5.52145051956,0,0,0,-0.00300214227762,8.07774629666,-0.120430354949,23.18,0.00138863351464,-0.00100620440543,0.00186282613982,0.823717594147,0.314497232437,0.245074227452,0.576184988022,-0.813659191132,-0.408476114273
1586441990.66,44.8807792664,51.7681655884,-133.980316162,-7.88842344284,3.95976758003,4.28156614304,0,0,0,0.00481379749049,8.07035277405,-0.109483535489,23.2,0.00135511310807,-0.00106866048701,0.00185875525232,0.979314208031,0.306280821562,0.312156319618,0.536478281021,-0.894768714905,-0.235790967941
1586441990.91,63.2961769104,50.576789856,-126.023040771,-7.76323080063,5.11822509766,2.71013045311,0,0,0,0.010947779217,8.06285881377,-0.104493666158,23.19,0.00132099375284,-0.00115505536002,0.00184153076702,1.11689841747,0.289062559605,0.382433235645,0.468424081802,-0.955830097198,-0.0203967094421
1586441991.17,82.6085586548,46.8999938965,-118.88130188,-7.3715338707,6.40991401672,0.907077729702,0,0,0,0.0196671580771,8.05034019753,-0.106860559288,23.19,0.00128234917326,-0.00120138374379,0.00185023406255,1.29732954502,0.333929955959,0.485021919012,0.368093729019,-0.963696718216,0.222170591354
1586441991.6,142.707809448,26.4262180328,-110.249557495,-4.44957494736,5.91502285004,-7.3796877861,-3.9096,7.9936,0.653054406562,-0.191332160427,7.99341290767,-0.0845666671146,23.17,0.00188279237926,-0.00125278088963,0.00167518290203,1.73036849499,0.352604269981,0.392458975315,-0.031641960144,-0.422918558121,0.881939888
1586441991.86,160.715591431,21.9206085205,-112.401107788,-3.39771556854,3.65579581261,-8.87827682495,0,0,0,-0.202336719162,7.99005200373,-0.114465776951,23.18,0.001933392691,-0.00112640033624,0.00161942079874,1.52270245552,0.201129332185,0.315410912037,-0.0937440395355,-0.102955818176,0.932348012924
1586441992.12,175.378982544,19.0027084351,-115.457122803,-2.79574227333,1.27981603146,-9.31385707855,0,0,0,-0.21995669914,7.9891862643,-0.135188339896,23.17,0.00200674918073,-0.00102166557409,0.00160522707207,1.19986379147,0.22109682858,0.289168298244,-0.11485004425,0.170621871948,0.891902208328
1586441992.38,-174.015975952,15.9191627502,-118.695449829,-2.44761896133,-0.528591454029,-9.1452999115,0,0,0,-0.231546296223,7.99069710388,-0.149964543111,23.17,0.0020509117177,-0.000932020569451,0.00165065452898,0.80756342411,0.337354212999,0.23980820179,-0.138059854507,0.364002943039,0.80588054657
1586441992.8,-166.180969238,6.50550317764,-121.82598877,-1.62469446659,-1.98154020309,-9.36587715149,0,0,0,-0.22381561075,8.01327114299,-0.178532632561,23.15,0.0019585370708,-0.000865574950121,0.00167254622542,-0.175414979458,-0.0119358282536,-0.106173761189,-0.246458768845,0.484033107758,0.662178039551
1586441993.06,-169.493972778,6.77881145477,-120.725456238,-1.23372721672,-1.65916872025,-9.80446147919,0,0,0,-0.231806523267,8.02915510445,-0.196619003897,23.16,0.0019458256582,-0.00084260693745,0.00162907749238,-0.436924487352,-0.0487029626966,-0.067578278482,-0.250788927078,0.437932252884,0.698030471802
1586441993.32,-175.937698364,6.76499891281,-119.817420959,-0.929659903049,-0.721529364586,-10.1329193115,0,0,0,-0.256498965174,8.04508911652,-0.212140187258,23.16,0.00198831920865,-0.000847916500655,0.00154707237883,-0.693772792816,0.0338696055114,-0.09463878721,-0.261072635651,0.34793639183,0.750907659531
1586441993.58,175.787124634,5.80245637894,-118.404701233,-0.778296470642,0.837306976318,-10.0030593872,0,0,0,-0.276985638142,8.05650652774,-0.228546965675,23.16,0.00202862236407,-0.0008233131374,0.00149367067827,-0.749011456966,0.131573557854,-0.128263279796,-0.289907455444,0.202743768692,0.795009613037
1586441993.99,156.790512085,1.33533072472,-115.921821594,-0.603642702103,3.84790897369,-8.89961910248,-3.5771,7.5713,0.569812266727,-0.509227326045,8.05652813409,-0.192659529717,23.14,0.00250094811348,-0.00106481146208,0.00145668417251,-0.382652908564,0.0518016442657,-0.00238418532535,-0.37037062645,-0.11415719986,0.803175926208
1586441994.25,153.358917236,1.46512007713,-115.522613525,-0.44250869751,4.32594156265,-8.57474136353,0,0,0,-0.517802662456,8.06317670268,-0.212034716283,23.14,0.00246529044758,-0.00108060832314,0.00149561551566,-0.248260825872,-0.0365600027144,-0.0668033957481,-0.370540142059,-0.173211812973,0.799378156662
1586441994.51,151.114273071,2.81920671463,-114.940567017,-0.450789600611,4.62539768219,-8.49102020264,0,0,0,-0.536736883735,8.06942397099,-0.230299130973,23.15,0.00246939885026,-0.00110195481982,0.00151344529328,-0.168842062354,-0.103603310883,-0.107736885548,-0.357483625412,-0.214194059372,0.804080247879
1586441994.77,150.046859741,3.81899309158,-114.587142944,-0.368029236794,4.82271814346,-8.49516582489,0,0,0,-0.566050919846,8.07585270757,-0.247824934855,23.15,0.00251955469865,-0.00111281305308,0.0015100147427,-0.0143513083458,0.00777319120243,-0.0082865357399,-0.345925331116,-0.239428043365,0.806403636932
1586441995.2,151.858688354,-0.166426345706,-112.348457336,-0.335920572281,5.30684614182,-8.62819004059,0,0,0,-0.559950432948,8.08614200515,-0.291919696839,23.12,0.00245837391371,-0.000979181263532,0.00151595154012,-0.567995071411,0.0338293686509,-0.30971172452,-0.406732082367,-0.213925600052,0.766565799713
1586441995.46,140.042449951,0.665012359619,-109.398521423,-0.053416159004,7.40486764908,-7.38983678818,0,0,0,-0.546829805423,8.08325515301,-0.327188198175,23.14,0.00247679066391,-0.000756443751602,0.00154183763915,-1.50249540806,0.119220525026,-0.134182050824,-0.405544996262,-0.403717756271,0.715362787247
1586441995.72,117.693817139,0.904342651367,-108.495101929,-0.0686230137944,8.79693222046,-4.7524523735,0,0,0,-0.561637340604,8.08236819084,-0.35141965976,23.13,0.00249351956109,-0.000733721984575,0.00150234147278,-2.28484296799,-0.0510529391468,-0.0832603648305,-0.392625331879,-0.691399335861,0.532324075699
1586441995.97,89.5383682251,3.07523393631,-109.034690857,-0.497404068708,9.39172840118,-0.6996768713,0,0,0,-0.592227702338,8.08464775659,-0.364673943369,23.14,0.00249798928066,-0.00081583602769,0.00134395779787,-2.58312869072,-0.0803933888674,-0.234097674489,-0.331542491913,-0.925644397736,0.175653934479
1586441996.4,29.6647758484,6.47854471207,-111.194610596,-1.21084165573,4.79052019119,8.33783817291,0,0,0,-0.611086776318,8.04924349382,-0.358948590181,23.11,0.00247867031235,-0.000823724296157,0.00131631879668,-1.02890872955,-0.0489935390651,-0.0639364346862,-0.192257404327,-0.771295785904,-0.719057321548
1586441996.66,18.3667469025,7.36210298538,-111.932510376,-1.60604858398,2.99989175797,9.17516231537,0,0,0,-0.611207009712,8.02929793399,-0.35115273257,23.12,0.00241351560451,-0.000839932714797,0.00130451746119,-0.94495755434,0.149240404367,-0.0571072287858,-0.169221401215,-0.647238016129,-0.845629692078
1586441996.91,9.26823616028,9.21646785736,-111.971763611,-1.86254584789,1.20401239395,10.0820407867,0,0,0,-0.61886483136,8.00125474365,-0.332861662255,23.13,0.00235467561121,-0.000915397308131,0.00141275098342,-0.656439483166,0.123006872833,-0.0929534584284,-0.135793447495,-0.521999597549,-0.937567234039
1586441997.17,2.45794773102,10.2192564011,-114.166404724,-2.37958979607,-0.270568311214,10.1024398804,0,0,0,-0.623455980683,7.98129216413,-0.306965873944,23.12,0.00222870870725,-0.00106147571238,0.00150848052979,-0.401760697365,0.0312738232315,-0.139707356691,-0.105937480927,-0.438518762589,-0.982085227966
1586441997.6,7.34599494934,8.09353065491,-112.287475586,-1.3656001091,1.07765138149,9.17409133911,0,0,0,-0.657394371596,7.96166361881,-0.283927045745,23.1,0.0022316820315,-0.00109529997713,0.00141176917053,0.0489346757531,-0.152263075113,0.124903790653,-0.150278568268,-0.497486591339,-0.950146913528
1586441997.86,7.27612447739,6.55814504623,-111.665283203,-0.743628382683,1.37394559383,9.14692687988,0,0,0,-0.689190812814,7.94995949095,-0.275705430723,23.11,0.00230526627411,-0.00106304713539,0.0013004896289,-0.077904753387,-0.0981122255325,0.0406898520887,-0.170893907547,-0.490652322769,-0.943140506744
1586441998.12,6.40229082108,6.06866264343,-110.938446045,-0.626724898815,1.06377601624,9.26685619354,0,0,0,-0.727984781393,7.93695494313,-0.265741641468,23.11,0.00238386691502,-0.00106474207703,0.00120835512005,-0.0821277573705,0.0164709985256,0.118751093745,-0.186435937881,-0.470709085464,-0.944400072098
1586441998.38,6.08471870422,6.6326880455,-109.41053772,-1.22350800037,0.731476426125,9.58093452454,0,0,0,-0.751726431673,7.92289381859,-0.250031474672,23.11,0.0023644620983,-0.00112858706584,0.00118484210532,-0.0293165482581,0.0683762207627,0.131011754274,-0.180295705795,-0.450924396515,-0.954494476318
1586441998.8,3.07440400124,8.6456155777,-104.939506531,-1.86778342724,0.419530749321,9.84837532043,0,0,0,-0.756978013036,7.89194301041,-0.224947244788,23.09,0.002287543735,-0.00115271872418,0.00121987444947,-0.290708243847,0.148639842868,0.0899963155389,-0.169239044189,-0.370318889618,-0.988809347153
1586441999.06,0.865046679974,10.9942598343,-103.591255188,-1.89428305626,-7.27270162315e-05,9.74397659302,0,0,0,-0.773826421715,7.87091888193,-0.205060367579,23.1,0.00228128526575,-0.00118359556701,0.0012433902959,-0.146926939487,0.267193466425,0.151693075895,-0.138275623322,-0.320817232132,-1.01419496536
1586441999.32,1.20438015461,14.341053009,-101.06552124,-2.48803758621,-0.0950810238719,10.0867118835,0,0,0,-0.789874043571,7.84142012483,-0.173927464471,23.1,0.00226561511086,-0.00124676609496,0.00136726057065,0.079221278429,0.281883001328,0.265688449144,-0.0966830253601,-0.299957990646,-1.0323703289
1586441999.58,4.08007478714,16.49036026,-98.1734466553,-2.8430325985,0.230706945062,9.74906349182,0,0,0,-0.813759975675,7.81665775091,-0.143260549243,23.09,0.00224955718104,-0.00134079384987,0.0014448635673,0.26540389657,0.0916741937399,0.222236707807,-0.0707731246948,-0.317873954773,-1.03112316132
1586442000.0,15.1599550247,12.9970855713,-94.9250717163,-2.47535252571,2.54304003716,9.13641834259,0,0,0,-0.815458278799,7.78092235615,-0.128037875567,23.07,0.00219743741267,-0.00133340881206,0.00142533191192,0.100716196001,-0.192567691207,0.0514008030295,-0.137785434723,-0.461209058762,-0.966984272003
1586442000.26,16.1121959686,9.82754135132,-94.9069747925,-1.4432425499,2.46930551529,8.85695266724,0,0,0,-0.853403182638,7.76266678497,-0.123131398602,23.08,0.00224229831774,-0.00137756446023,0.00133058332294,0.0558651983738,-0.289885729551,0.107439622283,-0.182810306549,-0.472559213638,-0.945702552795
1586442000.52,17.2977237701,6.98411417007,-94.5863265991,-1.01680612564,2.62844133377,8.81772518158,0,0,0,-0.893274639725,7.74780922697,-0.121347675279,23.09,0.00227619105521,-0.00143386803449,0.00122502013286,0.112304858863,-0.132314860821,0.0933535397053,-0.232858181,-0.484368562698,-0.923631191254
1586442000.78,19.4545059204,6.40155744553,-93.3961410522,-1.03973603249,2.96855783463,8.61951828003,0,0,0,-0.929722709343,7.73719735784,-0.124536580834,23.09,0.00228637194915,-0.00149376236829,0.00109924968235,0.237990185618,0.0938020646572,0.157872602344,-0.245904445648,-0.499930858612,-0.904544591904
1586442001.2,23.1520195007,5.35832071304,-87.2173919678,-1.16746461391,3.6953318119,9.12131214142,0,0,0,-0.941836431684,7.6954566973,-0.112630985019,23.07,0.00223446569373,-0.00152742933842,0.001129982456,-0.332471758127,-0.0213518738747,0.117483749986,-0.268514633179,-0.495468616486,-0.897018194199
1586442001.46,19.6380348206,4.98821783066,-86.4943695068,-0.972649097443,3.0811817646,9.35088539124,0,0,0,-0.957391260877,7.66891331622,-0.0992010201715,23.07,0.00220821333916,-0.00157296903541,0.00116159217637,-0.310364365578,0.0374130941927,0.0334419310093,-0.271338939667,-0.4419028759,-0.921906232834
1586442001.72,16.7195320129,6.44001865387,-86.0749435425,-0.902278602123,2.65997719765,9.43415927887,0,0,0,-0.985241259218,7.63523876202,-0.0866319856315,23.08,0.00224607856827,-0.00160322691691,0.00118150870568,-0.210167512298,0.215949907899,-0.0060707340017,-0.249735593796,-0.396527528763,-0.947127819061
1586442001.97,15.4163551331,8.9831495285,-85.1437149048,-1.52167308331,2.32862877846,9.71923160553,0,0,0,-1.00648081621,7.59976106604,-0.0613002288029,23.08,0.00224464840896,-0.00165772030559,0.00126406557029,-0.0383988022804,0.189637437463,0.0559948459268,-0.21231842041,-0.374924182892,-0.968243122101
1586442002.4,16.5714607239,5.12573432922,-82.7659759521,-1.15632605553,2.58615231514,9.37568283081,0,0,0,-1.02328441492,7.56142467802,-0.0441151545057,23.06,0.00218608139348,-0.00170436474989,0.00126634770898,0.0623934008181,-0.160756722093,0.0226132571697,-0.27109670639,-0.361213922501,-0.952068567276
1586442002.66,16.8519821167,3.71399855614,-83.8737182617,-0.830869734287,2.84519171715,9.06918811798,0,0,0,-1.02907726135,7.54647267541,-0.0476647990811,23.07,0.00214710450196,-0.00170402328023,0.00119886596995,0.0256188251078,-0.0908941105008,-0.0960022211075,-0.292302846909,-0.372011899948,-0.936333417892
1586442002.92,18.4633293152,4.03196716309,-84.8962783813,-0.904544711113,3.05657172203,9.22910404205,0,0,0,-1.03484413173,7.52673453527,-0.0419580306626,23.07,0.00210285118416,-0.00171505561298,0.00118664237443,0.275745302439,0.0212498046458,-0.0524416640401,-0.287695407867,-0.404490232468,-0.927710294724
1586442003.17,22.8372020721,3.29951477051,-84.8556900024,-0.683711469173,3.93984770775,9.06002998352,0,0,0,-1.03160849623,7.50000205744,-0.0389853310931,23.08,0.00207907530388,-0.00168479054426,0.00119356887443,0.43164268136,-0.1570135355,0.125695034862,-0.29998755455,-0.459989547729,-0.899898290634
1586442003.6,38.5058898926,1.68103468418,-84.1795272827,-0.705182671547,6.48916196823,7.82146453857,0,0,0,-1.00336694424,7.45896683791,-0.0447749498981,23.05,0.00199502474289,-0.00160126650386,0.00122744625538,0.155187442899,-0.0209346450865,-0.109769418836,-0.337598562241,-0.641248464584,-0.762078762054
1586442003.86,37.1236000061,1.96211791039,-85.3897247314,-0.348748415709,6.18376588821,8.16608905792,0,0,0,-0.991447998797,7.4168421713,-0.0372186197778,23.07,0.0019927915987,-0.00154119714341,0.00130564832424,-0.311596691608,-0.040079664439,-0.0645488500595,-0.330116033554,-0.640568971634,-0.76273393631
1586442004.12,34.8306274414,2.64846110344,-85.892074585,-0.268940508366,5.24959802628,8.67997455597,0,0,0,-1.03115686495,7.36331444446,-0.00349428996192,23.06,0.00202588280573,-0.0016191895338,0.00144895012977,-0.0327154994011,0.0525288209319,-0.0751584842801,-0.323530435562,-0.621166229248,-0.78716135025
1586442004.38,36.0444984436,3.42595863342,-86.2502288818,0.164578512311,5.65691232681,8.48724555969,0,0,0,-1.07970242695,7.28529859038,0.0185485272657,23.07,0.00217895480858,-0.0016378764566,0.00157539592689,0.134257242084,0.0276587940753,-0.0345006622374,-0.310349702835,-0.639164924622,-0.782399177551
1586442004.8,46.3817100525,2.99063634872,-91.8550643921,-1.00153124332,7.03158140182,6.32079172134,0,0,0,-1.09319249542,7.27254632973,-0.0050496987414,23.05,0.0020768946519,-0.00165567055709,0.00147545872906,0.444617211819,-0.313825964928,-0.323446184397,-0.327008247375,-0.781492233276,-0.627492904663
1586442005.06,49.3392944336,4.3736243248,-97.8836135864,-1.24797773361,7.45320081711,6.22079610825,0,0,0,-1.08764291672,7.27047814642,-0.0125126456245,23.07,0.00197215517462,-0.00165204688899,0.00144102582567,0.110099464655,-0.284341007471,-0.497068464756,-0.3034324646,-0.852838277817,-0.544696092606
1586442005.32,49.9144477844,6.5791516304,-103.147880554,-1.33269798756,7.46663951874,6.05568408966,0,0,0,-1.09921441213,7.26065262085,-0.0241950606426,23.06,0.00192863922716,-0.00165143044256,0.00139000319521,0.0790320336819,-0.155358031392,-0.36281350255,-0.257666349411,-0.897744894028,-0.504887104034
1586442005.57,50.7730712891,8.65684509277,-106.23550415,-1.53308129311,6.99078512192,6.62577390671,0,0,0,-1.15463634186,7.22279757057,0.0123112295776,23.06,0.00191082599609,-0.001773197279,0.00150369325181,0.173708051443,-0.0462234057486,-0.29226988554,-0.220485925674,-0.931303262711,-0.475134372711
1586442006.0,49.8025894165,9.45048332214,-115.342414856,-1.50354027748,7.40325069427,6.15048503876,0,0,0,-1.19764918863,7.17950222718,0.0104288213516,23.05,0.00193384915798,-0.00176991029983,0.00148014080627,-0.809000730515,-0.490607529879,-0.127448186278,-0.168991804123,-0.969947099686,-0.404383659363
1586442006.26,37.6950912476,7.11231851578,-120.747512817,-1.52921617031,5.75211334229,6.92979717255,0,0,0,-1.23704548271,7.20800585636,-0.0140520670633,23.05,0.00186737658046,-0.00181904582528,0.00129909616155,-1.10295164585,-0.419694304466,-0.239263579249,-0.159956693649,-0.911492347717,-0.553913593292
1586442006.52,24.3545246124,6.04090833664,-124.949867249,-1.41964626312,3.9042494297,7.95652866364,0,0,0,-1.2689570426,7.25334633254,-0.0453323478789,23.06,0.00178626226567,-0.00184951087799,0.00108061435072,-1.1378068924,-0.126157730818,-0.264127641916,-0.134410381317,-0.809949874878,-0.707033634186
1586442006.78,10.2089643478,6.99836397171,-128.108169556,-1.29823768139,1.18481755257,8.80072689056,0,0,0,-1.35260237011,7.29118093745,-0.0613209892691,23.06,0.00176247757593,-0.00197704377646,0.000895751471483,-1.17829465866,0.0723012164235,-0.257305860519,-0.0852794647217,-0.658096790314,-0.866307973862
1586442007.2,-9.82087898254,16.9630584717,-134.781906128,-3.15267896652,-1.57291388512,9.68984222412,0,0,0,-1.36893788261,7.28862956833,0.00603334168945,23.05,0.00169803484231,-0.00197217602866,0.00100100727494,-0.19343945384,0.34733492136,-0.127835586667,0.112242937088,-0.359362602234,-1.0323843956
1586442007.46,-11.9714384079,20.6101112366,-136.968704224,-3.34872460365,-2.29046154022,9.65043449402,0,0,0,-1.42435206304,7.26544034709,0.0809462047824,23.05,0.00171559204533,-0.00206259509141,0.0011585516482,-0.0360176004469,0.358577847481,-0.146727278829,0.187167882919,-0.353732585907,-1.0298268795
1586442007.71,-17.5081214905,25.9067783356,-141.101211548,-4.26538228989,-2.70813083649,8.59618473053,0,0,0,-1.44822089286,7.26758354013,0.119058179957,23.06,0.00171913898029,-0.00207447205327,0.00120052004942,-0.59595566988,0.678760647774,-0.254628121853,0.290646791458,-0.286431074142,-1.03043746948
1586442007.97,-31.4091339111,31.8723239899,-149.350906372,-4.93566989899,-4.8549413681,6.71632385254,-2.1859,6.5151,0.311167046526,-1.71113845715,7.2160679636,0.107012217648,23.06,0.00205362475209,-0.00227984665739,0.00107226150812,-0.97902739048,0.767045676708,-0.366278111935,0.432894706726,-0.0960156917572,-1.01236343384
1586442008.4,-29.3277702332,42.9991912842,-162.255630493,-6.16676521301,-3.42385649681,6.52870321274,0,0,0,-1.74446277636,7.22584835514,0.151250218282,23.04,0.00215902527087,-0.00225184659494,0.00112839940459,0.760350525379,0.00151321315207,0.244077324867,0.646500110626,-0.207722187042,-0.862312555313
1586442008.66,-18.2433719635,43.1623840332,-157.952224731,-6.61487674713,-2.28820085526,6.66651439667,0,0,0,-1.76927333982,7.24837067613,0.172745797858,23.05,0.00217814815904,-0.0022590137985,0.00109904966213,0.639575064182,-0.149785012007,0.248003795743,0.616710186005,-0.352277040482,-0.838527441025
1586442008.93,-7.65079021454,41.3840637207,-153.894363403,-6.39466810226,-1.07650566101,7.44649934769,0,0,0,-1.79449794645,7.25496993236,0.217538336261,23.05,0.00219419338514,-0.00227747282468,0.00113126223246,0.645958662033,-0.25405138731,0.177266463637,0.567254304886,-0.482247114182,-0.808554410934
1586442009.18,-0.822151303291,38.5843963623,-152.82711792,-6.30312108994,-0.0736154019833,7.89019393921,0,0,0,-1.79697148397,7.2643569248,0.267345611939,23.05,0.00215664301111,-0.00227341673326,0.00117984583522,0.398459285498,-0.259412825108,-0.0411838330328,0.523974180222,-0.577219963074,-0.776564836502
1586442009.6,6.98704862595,27.4960155487,-152.400054932,-4.60291814804,1.20156645775,8.58353424072,0,0,0,-1.82330502641,7.27217872508,0.31196213125,23.03,0.00214440454996,-0.00224398831028,0.00116675529257,-0.110466785729,-0.305613905191,-0.0108614563942,0.377416610718,-0.692223548889,-0.768397331238
1586442009.86,4.39543485641,24.1173305511,-153.353027344,-4.00982284546,0.757496535778,8.86554908752,0,0,0,-1.84546728172,7.27824026813,0.335722524239,23.05,0.00214561696673,-0.00222829925562,0.00115174467591,-0.314211934805,-0.304278790951,-0.0623867027462,0.34689283371,-0.665627241135,-0.809166193008
1586442010.12,-1.1090285778,19.8844604492,-153.923797607,-3.73595547676,0.0965028181672,9.2025642395,0,0,0,-1.83311896115,7.30023821095,0.358366023824,23.05,0.00206869792746,-0.00217652713024,0.00114681263113,-0.554615437984,-0.475397765636,0.00680461619049,0.303621053696,-0.595586299896,-0.88294672966
1586442010.38,-7.37136459351,13.5327444077,-154.191543579,-2.34679365158,-1.2021920681,9.76106739044,0,0,0,-1.85299728219,7.30460897537,0.403336947224,23.04,0.00205707662889,-0.00217332589678,0.00121324861808,-0.414164453745,-0.598621487617,-0.17307703197,0.224926948547,-0.503019094467,-0.957671403885
1586442010.8,-11.099360466,-2.06478023529,-159.304412842,0.890229940414,-2.4194483757,9.3096780777,0,0,0,-1.98796006048,7.32988120596,0.407246803051,23.03,0.00215977887526,-0.00227622211423,0.00114178588468,0.411164045334,0.0174932200462,-0.114157818258,0.0639636516571,-0.472404003143,-0.987114191055
1586442011.06,-3.85616254807,-0.398688912392,-161.021377563,-0.127462059259,-0.61597853899,9.233543396,0,0,0,-2.0230595563,7.37233147929,0.37929468407,23.04,0.00212187214144,-0.00226791564129,0.00101649305341,0.724480450153,0.271927595139,-0.108782969415,0.0934386253357,-0.581259727478,-0.93266749382
1586442011.31,-0.45165809989,1.30210518837,-162.746810913,-0.597766876221,0.0537817589939,9.78652667999,0,0,0,-2.02579793231,7.40402293241,0.393080188387,23.04,0.00204577823671,-0.00224578628905,0.00101187578125,-0.0652626231313,0.0274099428207,-0.179706513882,0.129109859467,-0.633622407913,-0.89472079277
1586442011.57,-3.37592458725,1.13836836815,-165.251174927,-0.0141013879329,-0.788023889065,9.7764749527,0,0,0,-2.08664957897,7.42106035019,0.409393855639,23.04,0.00207954557345,-0.0022875261962,0.0010073709134,-0.277765184641,0.0010393562261,-0.238356038928,0.151180505753,-0.595327854156,-0.918538093567
1586442012.0,-3.11138653755,9.27119827271,-173.610153198,-1.11991477013,-0.655728161335,8.90940475464,0,0,0,-2.1918745046,7.46259641512,0.37508815928,23.03,0.00217740108817,-0.00230461737051,0.000831584868903,0.258994877338,0.53354883194,-0.0702455863357,0.333827257156,-0.58633351326,-0.879449367523
1586442012.26,0.724455177784,14.4732322693,-174.105194092,-3.14724326134,0.636919617653,9.67503738403,0,0,0,-2.13085302539,7.4950182764,0.406313619662,23.03,0.00203852901513,-0.00220405438166,0.000872318930479,0.174363702536,0.296940714121,0.0346802175045,0.398988485336,-0.63467335701,-0.810130357742
1586442012.52,4.23582410812,16.7520370483,-172.980300903,-3.39326310158,0.386499285698,9.47896671295,0,0,0,-2.14161018106,7.56070166669,0.450639291182,23.04,0.00191238032417,-0.00228154628632,0.000900184033803,0.437417000532,0.137325406075,0.0679128021002,0.413540363312,-0.679152965546,-0.765253305435
1586442012.77,7.61660766602,19.0083885193,-172.011047363,-3.14453125,0.763924956322,9.58626651764,0,0,0,-2.19579767886,7.58823994371,0.522295524571,23.04,0.00191308221081,-0.0023839793291,0.000990921522777,0.305787533522,0.399429380894,0.0422142483294,0.427496433258,-0.717713117599,-0.715347528458
1586442013.2,9.75885772705,28.6751194,-171.302383423,-4.87923526764,1.73334252834,8.50158119202,0,0,0,-2.19549290003,7.61071845631,0.571526561429,23.02,0.00188104564087,-0.00232582513594,0.000994171570876,0.0305481310934,0.264584302902,0.0106148440391,0.530103683472,-0.72735118866,-0.620507717133
1586442013.46,11.6019630432,31.202709198,-170.193237305,-5.28847694397,2.81386637688,8.69765281677,0,0,0,-2.09730888821,7.5567368932,0.625720911158,23.03,0.00185477579241,-0.00208019926332,0.00110146226156,0.136365711689,0.163715317845,0.0662557631731,0.548457622528,-0.741376399994,-0.578878641129
1586442013.71,12.944275856,31.5059700012,-169.702865601,-4.47753047943,2.35119771957,8.74624443054,0,0,0,-2.1067556649,7.47920140274,0.703453663824,23.03,0.0020008883182,-0.00196378965568,0.00123472629188,0.112267583609,-0.0718519091606,0.0115551045164,0.543123483658,-0.757861614227,-0.562492609024
1586442013.98,15.8020267487,29.8609256744,-168.493240356,-4.53259658813,2.73292970657,7.79152154922,0,0,0,-2.13300401063,7.45217794499,0.688999871563,23.04,0.00208617228859,-0.00186287137006,0.00113850788136,0.225979849696,-0.176084041595,0.266558676958,0.516927719116,-0.792074680328,-0.5476167202
1586442014.4,24.0172290802,19.7451305389,-160.468154907,-3.31935143471,3.30209064484,8.38864517212,0,0,0,-2.21722278078,7.48219737464,0.745901813133,23.02,0.00207698506662,-0.00196549912967,0.00112834204032,0.00213757180609,-0.178040578961,0.0598482787609,0.320033550262,-0.899594545364,-0.537412643433
1586442014.67,23.3123836517,18.3687973022,-161.762588501,-2.99430584908,3.92305922508,8.78864383698,0,0,0,-2.22806036911,7.45271438745,0.795448390415,23.03,0.00210131542881,-0.0019105230653,0.00118237517663,-0.162100791931,-0.129772737622,-0.12604445219,0.312630176544,-0.896339416504,-0.548107385635
1586442014.92,18.098405838,17.6453971863,-163.918319702,-3.24948763847,3.3032476902,9.37934494019,0,0,0,-2.18570843529,7.43073576004,0.867361515617,23.03,0.00204560403056,-0.0018264491967,0.00129790573363,-0.609178900719,-0.15475307405,-0.116793833673,0.33051776886,-0.845453262329,-0.616385221481
1586442015.18,9.57962608337,15.5932674408,-165.333602905,-2.68058896065,1.50742387772,9.54836082458,0,0,0,-2.20810481908,7.43971487391,0.923120499256,23.03,0.00203369068793,-0.00184251315106,0.00135197526736,-0.694255590439,-0.237780854106,-0.000402331410442,0.333115339279,-0.757800340652,-0.730841398239
1586442015.6,-0.946543514729,12.55194664,-169.117248535,-1.92766785622,0.0500195175409,9.32460689545,-1.9043,6.5906,0.222970017415,-2.14829123984,7.29662267052,0.687827115382,23.01,0.002200002161,-0.0013984006182,0.00102070953706,0.00053271651268,0.0923998728395,-0.171028092504,0.332028865814,-0.618421316147,-0.856311321259
1586442015.86,-1.46870517731,13.4899015427,-169.885955811,-1.8979665041,0.110984615982,9.30024337769,0,0,0,-2.18836502165,7.27218787278,0.680664935822,23.03,0.0022808568033,-0.00132001160204,0.000969482848047,-0.0563465096056,0.0410974025726,0.0501707233489,0.350602388382,-0.611290693283,-0.855001926422
1586442016.11,-2.40660309792,13.1366767883,-168.795562744,-1.79820990562,-1.09213352203,9.39328861237,0,0,0,-2.28728001736,7.30573804081,0.706121068758,23.03,0.0023484818433,-0.00144297917661,0.000943393081318,0.0258155185729,-0.117127604783,0.0327177271247,0.341527462006,-0.595604419708,-0.865810155869
1586442016.37,0.457546800375,11.953543663,-170.07421875,-1.69141423702,-0.30756765604,9.10405921936,0,0,0,-2.37413137294,7.33470901268,0.694103036574,23.03,0.00240618488819,-0.00150604376058,0.000847518372189,0.446399331093,-0.0637441948056,-0.216703146696,0.331692934036,-0.632260799408,-0.840813398361
1586442016.8,12.1639137268,11.6346721649,-174.09046936,-2.07796931267,1.82725155354,9.61565494537,0,0,0,-2.42680699216,7.36542832886,0.758772834519,23.02,0.00238238372773,-0.00154826394272,0.00089286998249,0.524141669273,0.000580400344916,0.137376084924,0.353434801102,-0.777631521225,-0.693100214005
1586442017.06,18.4668121338,10.8156452179,-173.021072388,-1.90965342522,3.07531690598,9.58428955078,0,0,0,-2.44409589248,7.36500752696,0.824491110853,23.02,0.00236822861084,-0.00154877047142,0.000980734254179,0.446950733662,-0.0955164656043,0.0693433135748,0.325135231018,-0.851453781128,-0.611112833023
1586442017.31,22.3073940277,9.2412776947,-173.568283081,-1.68030822277,3.49024271965,9.12899875641,0,0,0,-2.47662601212,7.38620777742,0.871161528989,23.03,0.0023436227448,-0.00158862627694,0.00101587773432,0.322111696005,-0.179754167795,-0.0282421670854,0.302424669266,-0.887844562531,-0.561327457428
1586442017.57,27.0952129364,7.14111852646,-174.897186279,-0.929985821247,4.78536128998,8.68513298035,0,0,0,-2.51127843856,7.35018845639,0.887965495585,23.03,0.00240603898898,-0.00151373990206,0.00101519679146,0.478389203548,-0.242142423987,-0.00203400896862,0.284770965576,-0.929968595505,-0.491824626923
1586442018.0,31.3692398071,0.411962628365,-179.578109741,-0.280998766422,4.84513044357,8.57172298431,0,0,0,-2.56426029584,7.38991091388,0.955020947682,23.01,0.00235892155731,-0.00157165527637,0.00105674434858,-0.537796378136,-0.0538781397045,-0.248400911689,0.23290348053,-0.96902680397,-0.437245607376
1586442018.26,22.9655780792,3.33816766739,176.893417358,-0.752189159393,3.77751040459,9.19426345825,0,0,0,-2.58243659189,7.41264513533,1.00009831783,23.02,0.00232187955833,-0.00158545217151,0.00109264066873,-0.91073101759,0.222231537104,-0.460529536009,0.311722517014,-0.887563467026,-0.560261011124
1586442018.52,11.4191379547,8.11151409149,173.619354248,-1.36285400391,2.02076077461,9.4283914566,0,0,0,-2.61127693382,7.42636469937,1.01315196841,23.03,0.00232793094939,-0.00156449926639,0.00107214312822,-0.923137485981,0.374179393053,-0.264565646648,0.418059587479,-0.753837823868,-0.684494018555
1586442018.78,1.80796563625,13.0587415695,172.464859009,-2.10254812241,0.413944959641,9.34908866882,0,0,0,-2.64761822678,7.44112251414,1.01291072994,23.03,0.00235285006635,-0.00153766395692,0.00102845919143,-0.736975967884,0.443452000618,-0.0789225324988,0.494747877121,-0.623213291168,-0.759217977524
1586442019.2,-2.83448338509,21.1533222198,171.030380249,-3.35833954811,0.326334476471,9.60718345642,0,0,0,-2.64932686453,7.39954510679,1.08033158928,23.01,0.00240303772051,-0.00137995796119,0.00111734501046,0.196934506297,0.0931911244988,-0.0623181462288,0.605313301086,-0.550042390823,-0.732516765594
1586442019.46,-2.87467694283,21.4210472107,170.115936279,-3.45433139801,0.226374417543,9.34002876282,0,0,0,-2.64418505643,7.3572792942,1.11010644207,23.02,0.00244150142237,-0.00123991174659,0.00115565363728,-0.0613749139011,-0.046095252037,-0.0553786791861,0.614058017731,-0.546068906784,-0.721529006958
1586442019.72,-3.38257789612,20.8887062073,169.845916748,-3.32922410965,-0.67933255434,9.04207515717,0,0,0,-2.69304829015,7.38788632715,1.12930531832,23.02,0.00247247228817,-0.0012635656415,0.00113309714653,0.0135190812871,-0.0348269939423,0.0255234539509,0.612565517426,-0.538449287415,-0.732601165771
1586442019.98,-1.67942523956,20.444152832,170.778488159,-3.76067614555,-0.135728746653,8.98038864136,0,0,0,-2.68996900555,7.42640238979,1.12876929979,23.02,0.00240866544839,-0.00124087347265,0.00108855518355,0.0566862560809,-0.0455543398857,0.0754229798913,0.59916639328,-0.559969186783,-0.723921537399
1586442020.4,-0.834847927094,21.439496994,173.447006226,-3.63217639923,-0.571139931679,9.23515033722,0,0,0,-2.74675084713,7.50248974878,1.20023757167,23.0,0.00239015435726,-0.0013326603177,0.00111334515698,0.24177660048,0.0794015824795,0.0932760536671,0.584084510803,-0.578876256943,-0.718650579453
1586442020.66,1.36921095848,21.4948348999,174.061950684,-3.37951183319,0.512322664261,9.71108722687,0,0,0,-2.75976350789,7.47015292684,1.28912806591,23.02,0.00243787624074,-0.00127218023201,0.00123272130532,0.0165536999702,-0.0547796525061,0.0042736530304,0.580155849457,-0.612221002579,-0.698777198792
1586442020.92,0.78250837326,20.8551940918,173.677444458,-3.318546772,0.490853339434,9.7790222168,0,0,0,-2.76533619011,7.43266053155,1.38077039544,23.01,0.00247870815118,-0.00119775008226,0.00135756718559,0.0197567045689,-0.054469704628,-0.0154495248571,0.574023962021,-0.601706266403,-0.713444232941
1586442021.17,3.03331851959,20.3594017029,173.731948853,-3.21641969681,0.863238215446,9.29439353943,0,0,0,-2.78932200151,7.40339751601,1.41522231944,23.02,0.00252574948062,-0.00111623641054,0.00137616647879,0.318545877934,-0.0231966432184,0.0218696929514,0.568773031235,-0.628626823425,-0.691269159317
1586442021.59,8.75990104675,19.3057632446,172.918228149,-3.24932789803,1.44579017162,8.88669013977,0,0,0,-2.84173665904,7.43545554534,1.43748172269,23.01,0.00252567162424,-0.00110652327887,0.00131847829537,-0.0803932622075,-0.031092768535,0.0286065079272,0.560978889465,-0.694931030273,-0.632368087769
1586442021.86,7.98610830307,19.0993442535,173.594894409,-3.31818079948,0.666698098183,9.02183914185,-3.3773,8.6963,0.253690330926,-3.1028924601,7.91455912572,0.862923080742,23.01,0.00238680466657,-0.0014590364622,0.000614119437593,-0.0502139367163,0.026198476553,0.0599302388728,0.550245285034,-0.684800624847,-0.65048289299
1586442022.11,9.57446575165,20.1448345184,174.042327881,-3.69511795044,1.18823218346,9.21763038635,0,0,0,-3.11857091945,7.97202980395,0.906410369053,23.02,0.00232718572359,-0.00152489288458,0.000639349826238,0.20924732089,0.135626658797,0.00466778920963,0.555088281631,-0.702665090561,-0.621724367142
1586442022.37,10.9417381287,21.3644180298,173.245285034,-3.57163023949,1.87031054497,9.31966018677,0,0,0,-3.13569725281,7.97845967573,0.95947824364,23.02,0.0023293783321,-0.00150358545994,0.000697178098025,0.0315345861018,0.0185631252825,-0.137013241649,0.574903964996,-0.713735342026,-0.590255975723
1586442022.8,12.4542274475,17.6036128998,169.342224121,-2.9941341877,2.3776884079,8.83123779297,0,0,0,-3.17632090094,7.99659053066,0.967696749387,23.01,0.00232991769733,-0.00143731171562,0.000641905370644,0.078571587801,-0.186409071088,-0.0549510158598,0.56711602211,-0.721546173096,-0.590369462967
1586442023.05,13.726319313,16.3680343628,169.171081543,-2.8106546402,2.44209599495,9.14758968353,0,0,0,-3.1954843109,8.00540042293,0.987669389855,23.02,0.00232478625714,-0.00140074523476,0.000640157512287,0.19518956542,-0.0192880686373,0.0668294727802,0.555330753326,-0.731955051422,-0.584746599197
1586442023.31,15.9164991379,16.1591758728,170.202774048,-2.73595428467,2.55463838577,9.50015449524,0,0,0,-3.21484162188,8.02184919707,1.05337581249,23.02,0.00232303535323,-0.00140954717984,0.000715830829809,0.0654138624668,-0.0135526061058,0.0457875467837,0.538484573364,-0.764277696609,-0.564612388611
1586442023.57,15.6917600632,15.4557876587,169.628479004,-2.58796262741,2.25102210045,9.2868938446,0,0,0,-3.25027704447,8.0642973113,1.10514329519,23.02,0.00232283479536,-0.00146551041523,0.000749593795635,-0.00782459974289,-0.109307475388,-0.0908553600311,0.532962799072,-0.747211456299,-0.571545362473
1586442024.0,16.113904953,13.7477264404,167.488433838,-2.34108757973,2.03780913353,8.73075008392,0,0,0,-3.32259800455,8.16103185533,1.12618869716,23.01,0.00231188993861,-0.00157213756658,0.000679103688225,0.0380746982992,-0.0178858619183,0.212026357651,0.534991025925,-0.758483409882,-0.575189352036
1586442024.25,19.927154541,14.0330648422,169.492034912,-1.91616547108,2.22031664848,8.48165035248,0,0,0,-3.42421191493,8.25576009224,1.14138932015,23.02,0.0023789058446,-0.00174751823929,0.000604225449569,0.494523435831,0.174026221037,0.0344827882946,0.513509273529,-0.802410840988,-0.52659702301
1586442024.51,24.5438690186,17.0771636963,170.20803833,-2.54465222359,4.73404312134,8.74703407288,0,0,0,-3.4542412875,8.18649998113,1.1727297138,23.02,0.00245128084279,-0.00159114626225,0.000635101878703,0.183963015676,0.347258865833,-0.0360354781151,0.537361383438,-0.833305597305,-0.438111543655
1586442024.77,24.37682724,19.2896881104,171.600738525,-3.20377755165,4.88010549545,8.33496284485,0,0,0,-3.46454576689,8.11359982613,1.16555828489,23.02,0.00247351931118,-0.00139595048347,0.000608233841054,-0.108729317784,0.0981308594346,0.108624264598,0.552375555038,-0.82713842392,-0.425787210464
1586442025.2,30.9792728424,17.3949680328,-179.306564331,-3.18939208984,4.32103061676,8.28879737854,0,0,0,-3.50765265996,8.1756387219,1.2547015444,23.01,0.00241927736621,-0.00149400704448,0.000658853983851,0.289814949036,0.025413190946,0.254682511091,0.44403386116,-0.915613412857,-0.368090867996
1586442025.46,35.4669494629,16.9323005676,-176.490493774,-2.95322775841,4.39947509766,7.40326118469,0,0,0,-3.56636745687,8.28182085885,1.2922554933,23.02,0.00238600479637,-0.00168770960779,0.0006233224031,0.374739676714,0.18400028348,0.140015050769,0.407473087311,-0.947861194611,-0.309185266495
1586442025.71,41.3336753845,19.4934329987,-174.988510132,-3.08239936829,5.50670051575,6.62524604797,0,0,0,-3.64042684004,8.33409378975,1.31294445389,23.02,0.00241181443638,-0.0017943073826,0.000569834767727,0.541301906109,0.333576709032,-0.144343107939,0.41287279129,-0.967415809631,-0.206310272217
1586442025.97,48.2859840393,23.5132961273,-173.627731323,-3.81543898582,6.92936420441,5.767765522,0,0,0,-3.68446457784,8.3091300132,1.31783634918,23.02,0.00243291436848,-0.00175118022514,0.000527963117929,0.562097907066,0.318088442087,-0.176976621151,0.442045211792,-0.970341205597,-0.0713572502136
1586442026.39,67.183303833,27.1996936798,-172.08303833,-4.27986288071,8.09308719635,3.21313142776,0,0,0,-3.76210798817,8.26732464365,1.34900175169,23.0,0.00247133755289,-0.00173749854378,0.000495929415234,0.773082017899,-0.0205799974501,0.132756724954,0.443365097046,-0.917776584625,0.249595880508
1586442026.65,73.9726333618,25.9491081238,-171.077606201,-4.20558786392,8.53460979462,2.80793642998,0,0,0,-3.7926229859,8.2266781605,1.41190148171,23.01,0.0024880793987,-0.00172884043043,0.000563733867775,0.245840102434,0.0649504438043,0.158698111773,0.415107250214,-0.892207622528,0.350102424622
1586442026.9,72.73462677,25.5232048035,-169.718978882,-4.01897573471,8.35949993134,2.85542011261,0,0,0,-3.84241593588,8.19698215437,1.46631756336,23.02,0.0025251616867,-0.00174579394165,0.000606245182129,-0.300857454538,0.122808679938,-0.000360608100891,0.400046110153,-0.906512498856,0.329614877701
1586442027.16,68.7588729858,27.2312412262,-168.47543335,-4.27140760422,8.14208507538,3.29302287102,0,0,0,-3.89388465287,8.15870819301,1.50847857717,23.02,0.00256577474236,-0.00174164718579,0.000630368368945,-0.389085769653,0.167328909039,-0.212048023939,0.414304494858,-0.924390554428,0.268944978714
1586442027.6,67.0595016479,35.8552436829,-168.001602173,-5.63080883026,7.1458234787,3.16677880287,0,0,0,-3.9599639869,8.12068480605,1.57483139654,23.0,0.0025848292115,-0.00177461459672,0.000644082906775,0.261474460363,0.0961266458035,-0.225938886404,0.511313438416,-0.874107122421,0.271365642548
1586442027.86,71.5019607544,37.9017028809,-167.13671875,-6.156665802,7.4743347168,2.67509865761,0,0,0,-3.96841207671,8.07618146113,1.6195900045,23.01,0.00256205570909,-0.00175277187093,0.000683899433866,0.352155476809,0.132065266371,-0.0691548064351,0.522235155106,-0.834924697876,0.344290733337
1586442028.12,76.2573928833,38.6792449951,-165.122634888,-6.22231054306,7.6711564064,1.99609041214,0,0,0,-3.97858284631,8.01832362561,1.65082794507,23.01,0.00254806323985,-0.00171084356465,0.000715109586274,0.232275605202,0.167179852724,-0.00318288826384,0.509008407593,-0.810420513153,0.40845656395
1586442028.38,79.1615524292,39.3353424072,-163.306304932,-6.17569303513,7.79397344589,1.64381098747,0,0,0,-3.99686554885,7.93941641965,1.67788904393,23.01,0.00256116336416,-0.00164581871779,0.000753154574243,0.0590466037393,0.0854335799813,-0.0961601734161,0.501185894012,-0.793936491013,0.444541454315
1586442028.8,77.0533828735,51.5254173279,-162.842483521,-8.85797405243,6.09064769745,1.83543503284,0,0,0,-3.89249212355,7.90775845873,1.75052549533,23.0,0.00233673841613,-0.00163931141386,0.000841315742357,0.00613406440243,0.0294484253973,-0.287438929081,0.61798787117,-0.69708609581,0.45459318161
1586442029.05,74.9618225098,53.2821807861,-165.031066895,-8.36528968811,5.97434139252,1.64336037636,0,0,0,-3.84730943933,7.86350701525,1.77022362416,23.01,0.00224467722725,-0.00158689335776,0.000861930106979,-0.102476797998,-0.123493388295,-0.0813275650144,0.650889873505,-0.674338817596,0.443810939789
1586442029.31,71.7156066895,52.679851532,-167.425292969,-7.86348581314,5.58982133865,1.84638929367,0,0,0,-3.85988602391,7.83616059767,1.80041049383,23.01,0.0022320032185,-0.00159908707515,0.000858345804844,-0.0942647606134,-0.144220903516,0.103464744985,0.65888094902,-0.688688516617,0.415628433228
1586442029.57,69.6290206909,50.3170051575,-169.723114014,-7.81838130951,6.02792406082,2.22079539299,0,0,0,-3.84532271704,7.80187309133,1.82706255234,23.01,0.00218227204705,-0.00157274070993,0.0008645872105,-0.00795573089272,-0.231558084488,0.190598532557,0.655513525009,-0.704607486725,0.38737988472
1586442030.0,59.5728569031,38.5459480286,-177.184738159,-6.07154607773,6.92355394363,3.80228638649,0,0,0,-3.88634404765,7.73990040558,1.86540941077,22.99,0.00219502767905,-0.00151021556364,0.000845425008773,-0.140155896544,-0.29775506258,0.435832977295,0.614907979965,-0.821053743362,0.212288379669
1586442030.26,59.1642074585,31.6232910156,-177.08493042,-5.21972370148,7.05886650085,4.14083051682,0,0,0,-3.91659734634,7.7443464242,1.8946747038,23.0,0.00217838254987,-0.00153324034442,0.000818358432997,0.033534321934,-0.328123569489,0.572498977184,0.545157194138,-0.874469041824,0.160493135452
1586442030.52,59.2680664062,24.7723236084,-177.208587646,-4.00432491302,7.38267374039,4.58674716949,0,0,0,-3.96522166492,7.74958692329,1.95193594613,23.01,0.00219514921038,-0.00158725164042,0.00082685718572,-0.0329196490347,-0.305943220854,0.415215671062,0.470805883408,-0.930128097534,0.130356550217
1586442030.78,58.6170043945,19.9540290833,-177.619842529,-2.99185919762,7.59654283524,4.70118999481,0,0,0,-4.04928665648,7.74807809288,1.994747267,23.0,0.00226134586035,-0.00163701716143,0.000808671529115,-0.0910505801439,-0.17405153811,0.276916503906,0.421393632889,-0.963257074356,0.0948357582092
1586442031.2,62.8025741577,11.2291135788,-177.175292969,-1.98641228676,8.26069831848,4.78606653214,0,0,0,-4.09457747396,7.75214060367,2.11114176133,22.99,0.00224134416919,-0.00170213019186,0.000887473249039,0.031837079674,-0.195390000939,0.17638579011,0.304174184799,-0.999269485474,0.128934144974
1586442031.45,62.794593811,8.85019207001,-179.227584839,-1.63703298569,8.36230278015,4.76886940002,0,0,0,-4.10885060822,7.76508752999,2.19996262583,23.0,0.00221151373128,-0.00175980560096,0.000956079449443,-0.0205278396606,-0.272879034281,-0.00180304073729,0.291877269745,-1.00635266304,0.124264240265
1586442031.71,62.3583221436,7.96170473099,177.827774048,-1.47324323654,8.76599311829,4.31445217133,0,0,0,-4.13903596995,7.7619027326,2.20164206859,23.0,0.00219056844524,-0.001727719122,0.00091582845142,0.0845544040203,-0.226242855191,-0.0181347113103,0.310656547546,-1.00023770332,0.118709087372
1586442031.96,64.4724502563,6.90952253342,176.224899292,-0.816582143307,8.77141666412,3.54906439781,0,0,0,-4.24952494365,7.76833803973,2.16477663054,23.0,0.00226333752404,-0.00172095431781,0.000785849883301,0.196629792452,-0.0747010186315,-0.0149622578174,0.30838727951,-0.995711088181,0.140738725662
1586442032.4,68.6187973022,7.67846107483,175.440292358,-1.40319311619,9.05015659332,3.68215489388,0,0,0,-4.29650134224,7.75716045775,2.24253682977,22.98,0.0022440901077,-0.0017244106118,0.000813263563629,0.033950060606,0.0340633131564,0.142238304019,0.319269895554,-0.97625374794,0.217192649841
1586442032.66,70.3210678101,6.30589914322,176.373825073,-0.795831918716,8.99152374268,3.28326153755,0,0,0,-4.37339913067,7.75137554537,2.29365684491,23.0,0.00229833705044,-0.00176003748321,0.00081424740999,0.0451199747622,0.0180341303349,0.0632204189897,0.291794061661,-0.980064630508,0.2450299263
1586442032.92,67.8475112915,6.79247951508,176.14024353,-1.08426511288,8.37687301636,3.65628790855,0,0,0,-4.43579740436,7.80978538053,2.37959268786,23.0,0.00230396029536,-0.0018935280513,0.000815514682046,-0.297370582819,-0.0227600354701,-0.0490561202168,0.302608013153,-0.987470149994,0.202331781387
1586442033.18,66.1716918945,6.85773324966,175.312423706,-0.873317956924,8.6670923233,3.78388047218,0,0,0,-4.52440566837,7.82051804597,2.42122488619,23.0,0.00236118129164,-0.00193894081981,0.000786151675679,-0.0746518447995,-0.0830769538879,-0.0457301773131,0.310151815414,-0.990396976471,0.176814556122
1586442033.6,61.0992660522,9.31133937836,174.913696289,-1.66349077225,8.45428657532,4.76088190079,0,0,0,-4.57333941052,7.82110936953,2.49804544231,22.98,0.00234470220549,-0.00194542494522,0.000802688503308,0.0176675617695,0.163420259953,-0.0307649392635,0.356971740723,-0.992578744888,0.0950038433075
1586442033.86,62.6559410095,10.3096103668,176.182342529,-1.97812116146,8.96081733704,4.69712305069,0,0,0,-4.56300917773,7.77464803114,2.53633143577,23.0,0.00230382996315,-0.00186928466135,0.00085347649392,0.0664986744523,0.0815235078335,-0.0087767848745,0.354799509048,-0.9842877388,0.1253926754
1586442034.11,61.7401504517,10.3885717392,176.634857178,-1.80345869064,8.63514900208,4.91093826294,0,0,0,-4.57814008979,7.73651717884,2.6064647087,23.0,0.00229822979386,-0.00184404843146,0.000922599185379,-0.181096807122,0.0228084623814,0.0454969629645,0.352179527283,-0.988788604736,0.112658262253
1586442034.37,61.6326789856,9.19488239288,177.2940979,-1.78125524521,8.41888427734,4.88013648987,0,0,0,-4.57667447129,7.74049075422,2.68822060383,23.0,0.00225167741513,-0.00187148147876,0.000980741239229,0.150646984577,-0.0360101424158,0.157814443111,0.333830595016,-0.998574495316,0.104556798935
1586442034.8,60.8747711182,6.4293217659,176.123565674,-1.10611891747,8.33110618591,4.35793924332,0,0,0,-4.66351068796,7.78582196548,2.72174229055,22.98,0.0022470332814,-0.00190839822642,0.000900755890137,-0.0930681750178,0.000754743698053,-0.0739976763725,0.31009888649,-1.00651931763,0.0806174278259
1586442035.06,60.7434120178,7.39636087418,175.796844482,-1.04965162277,8.82579803467,4.32787704468,0,0,0,-4.74829089967,7.76215428943,2.67656468206,22.99,0.002296750706,-0.00182950859609,0.000807977522214,0.0440679527819,0.0446997582912,-0.0835180357099,0.326167106628,-1.00016498566,0.0823464393616
1586442035.32,61.3647613525,8.62777614594,176.692840576,-0.819596529007,8.84928226471,4.29777956009,0,0,0,-4.89416627664,7.70120751712,2.64219388108,23.0,0.00243953892844,-0.00174495554351,0.000730920504291,0.0146493334323,0.203354686499,0.0143066076562,0.330830812454,-0.996065378189,0.0994782447815
1586442035.58,62.3826179504,8.70471000671,179.626586914,-1.46710681915,8.40010547638,4.69608879089,0,0,0,-4.93309345056,7.70296480385,2.72362877929,23.0,0.00243998702967,-0.00178818399906,0.000774305208485,0.0904299393296,0.202042609453,0.210738942027,0.302554368973,-1.00199246407,0.110856294632
1586442036.0,60.5601463318,9.61270713806,-174.64491272,-2.01129508018,8.42673301697,4.93349075317,0,0,0,-4.942776729,7.70513722143,2.79956524808,22.99,0.00235968306812,-0.00179471462016,0.000811961002179,0.0274948813021,0.261711359024,-0.115905724466,0.263180971146,-1.02274537086,0.0769777297974
1586442036.25,59.9850921631,12.5451259613,-174.162918091,-2.53074502945,8.51064586639,5.19746637344,0,0,0,-4.90309368307,7.66839249755,2.86462576336,23.0,0.00227658049051,-0.00175635351029,0.000896612923539,-0.234049588442,0.0730164423585,-0.245749980211,0.298966646194,-1.0124733448,0.083952665329
1586442036.52,55.8519058228,14.941110611,-175.016372681,-2.42823719978,7.98459863663,5.22775745392,0,0,0,-4.96420582969,7.64424926589,2.8761586014,22.99,0.00230014009418,-0.00172368503019,0.000874989341831,-0.410378038883,0.0734143182635,-0.160495981574,0.341246843338,-1.00374269485,0.0210950374603
1586442036.77,51.9667816162,16.8427352905,-174.26449585,-2.47516179085,7.43867015839,5.28779602051,0,0,0,-5.08754990055,7.64588367793,2.84331857352,22.99,0.00237995494189,-0.00170511897288,0.000767249662219,-0.283567607403,0.188864037395,-0.0437721684575,0.363015890121,-0.994141340256,-0.0398118495941
1586442037.19,51.520942688,17.3416366577,-170.711929321,-2.83410668373,7.10132265091,5.84601354599,0,0,0,-5.17586606207,7.65103874355,2.92897357557,22.98,0.00239589569839,-0.00175496605582,0.000772580665231,0.00469163199887,0.0670917332172,0.104858741164,0.340325593948,-1.00864696503,-0.0532848834991
1586442037.45,53.1196861267,16.8974304199,-169.367416382,-2.90592050552,6.99109268188,5.83160400391,-1.0976,6.901,0.229906862401,-3.1303615378,7.43185752236,1.44776785016,22.99,0.00123566646192,-0.000752411132699,0.000507069070544,0.232491672039,0.0505514554679,0.0706486552954,0.321042060852,-1.01384282112,-0.0328917503357
1586442037.71,53.4819717407,17.443315506,-170.076065063,-3.06048941612,7.91006231308,5.67143726349,0,0,0,-3.14156551065,7.39735304065,1.45076028442,22.99,0.00121783573615,-0.000688515256966,0.000522353390197,-0.183284297585,-0.0475376881659,-0.183807343245,0.332548618317,-1.0069000721,-0.0202751159668
1586442037.97,48.6917991638,19.3156871796,-171.561569214,-3.19299769402,7.08693885803,6.04594516754,0,0,0,-3.17120202591,7.38168067201,1.45882712346,23.0,0.00122676570678,-0.000666282212984,0.000511097362129,-0.345940977335,0.0564120784402,-0.137595847249,0.377851724625,-0.991824150085,-0.0896239280701
1586442038.4,47.7058982849,23.1248760223,-171.98739624,-3.7049472332,6.66864824295,6.00750684738,0,0,0,-3.22542659533,7.36419461371,1.49080612404,22.98,0.00125112247739,-0.000666729469956,0.00050034999948,-0.00122636568267,0.0199697930366,0.00548586249352,0.42816901207,-0.97146320343,-0.0859668254852
1586442038.66,47.553062439,23.1827087402,-171.683364868,-3.6294631958,6.48243284225,5.76633834839,0,0,0,-3.27913239275,7.37272193683,1.50148351806,22.99,0.0012886047052,-0.000694836449891,0.000447646536513,-0.0310391187668,0.0481940843165,0.0123552978039,0.424303531647,-0.970116853714,-0.0921101570129
1586442038.92,47.6044692993,23.8638515472,-171.411346436,-3.98051142693,6.4576625824,5.91056108475,0,0,0,-3.30972588091,7.38161201178,1.52353588528,22.99,0.00128585066133,-0.000723633255679,0.000424522085986,0.000276416540146,0.0548847131431,-0.0675097182393,0.430854082108,-0.967916727066,-0.0886273384094
1586442039.17,48.6551551819,25.049949646,-171.231964111,-4.11196708679,6.7328915596,5.91250753403,0,0,0,-3.33594889447,7.36402244485,1.54413232967,23.0,0.00129316404356,-0.000713450610365,0.000430936393627,0.1034200266,0.124011933804,-0.0445783175528,0.443048000336,-0.964311361313,-0.0625123977661
1586442039.6,45.2672309875,29.3298873901,-167.327606201,-4.91785335541,6.01837110519,6.28046894073,0,0,0,-3.35985933101,7.33976486303,1.60220864181,22.98,0.00127435866867,-0.000724575676451,0.000474330291457,-0.156544163823,0.108323246241,0.0152386724949,0.4642765522,-0.952110767365,-0.11344909668
1586442039.85,45.1927032471,29.788274765,-166.056777954,-4.99569797516,6.01758003235,6.00834226608,0,0,0,-3.37332694128,7.33338748794,1.62540715662,22.99,0.0012536911884,-0.000729333427175,0.000475158089295,-0.0252082962543,0.0682808458805,0.0543423034251,0.457549333572,-0.952699184418,-0.115416049957
1586442040.11,45.2769088745,30.2141284943,-165.588668823,-4.84801149368,5.90726232529,5.91495037079,0,0,0,-3.40773887762,7.32754269118,1.65215661059,22.99,0.00126837410576,-0.000749426872845,0.000466447194675,0.0163622219115,0.058784339577,-0.0563234090805,0.459651947021,-0.953637599945,-0.111523866653
1586442040.37,46.9905090332,31.1896724701,-165.179824829,-4.96349239349,6.24250507355,5.86797237396,0,0,0,-3.43546558321,7.29344512094,1.67843484613,23.0,0.00128905620349,-0.000730960075175,0.00049035543886,0.225029185414,0.100152954459,0.00409111427143,0.469593286514,-0.952997922897,-0.0822162628174
1586442040.8,50.0103569031,30.9034576416,-162.114257812,-4.78542327881,6.48105287552,5.2823138237,0,0,0,-3.50012987844,7.25931102143,1.70103965236,22.98,0.00133278777911,-0.000724390429767,0.000468325257385,0.0738181248307,0.0130467144772,0.106003150344,0.435999155045,-0.966139316559,-0.051132440567
1586442041.06,51.4483375549,29.7920360565,-161.375793457,-4.92089033127,6.6703915596,5.14947414398,0,0,0,-3.52598948422,7.25142045129,1.70717073692,22.99,0.00132464604009,-0.000722438797496,0.000440842152758,0.0757284462452,-0.0553444065154,0.111588090658,0.418394088745,-0.976600885391,-0.0367977619171
1586442041.32,52.8264961243,28.6563968658,-161.098022461,-4.67640924454,6.70713567734,5.08665275574,0,0,0,-3.5605841058,7.25021670265,1.72767477878,23.0,0.0013288612097,-0.000749599412941,0.000420825743851,0.148925930262,0.00124350201804,0.106427840889,0.398035049438,-0.984596252441,-0.0200717449188
1586442041.58,55.0956726074,28.1776351929,-159.749145508,-4.63098478317,7.00079107285,5.00901699066,0,0,0,-3.58635261125,7.23531075436,1.75571471307,22.99,0.00132889808165,-0.000766354117719,0.000431149672073,0.112222880125,0.101404644549,0.0854425132275,0.379003763199,-0.9903819561,0.00781679153442
1586442042.0,55.9899177551,29.5554580688,-155.452880859,-4.65818071365,7.33230876923,4.8854470253,0,0,0,-3.63621285089,7.16720612429,1.77011392764,22.98,0.00136202292363,-0.000719518092133,0.000450227028151,-0.152815878391,0.0266201812774,0.0707157030702,0.360560655594,-0.999680519104,0.00554537773132
1586442042.26,55.1180000305,28.2564964294,-154.810760498,-4.79053258896,7.13454580307,4.98282623291,0,0,0,-3.6467334079,7.14780929458,1.78338818428,22.99,0.00133647070454,-0.00071221520866,0.000456779512332,-0.0770553946495,-0.0741258338094,0.170772522688,0.340416431427,-1.00459575653,-0.0151221752167
1586442042.52,55.2059745789,25.8633651733,-154.421905518,-4.46925592422,7.05509281158,5.03905439377,0,0,0,-3.6599108603,7.1519783221,1.8112893596,22.99,0.00130205927834,-0.000748662493296,0.000456772797208,0.0287927724421,-0.0801399350166,0.18315692246,0.306664228439,-1.01737523079,-0.0271916389465
1586442042.77,55.7597312927,23.9547176361,-153.55329895,-4.11188602448,7.1377696991,5.18244457245,0,0,0,-3.67563137396,7.15219772377,1.85594508003,23.0,0.00127823038419,-0.000799726290713,0.00048114670701,-0.031387809664,-0.00458955764771,0.175719723105,0.277843236923,-1.0232257843,-0.0302248001099
1586442043.2,53.1182861328,23.750825882,-152.30859375,-4.09687185287,7.50245666504,5.51524209976,0,0,0,-3.69712788961,7.09510805475,1.86216176344,22.98,0.0012534828486,-0.000741907333162,0.000502561041921,-0.20940156281,0.00406131194904,-0.114311277866,0.265942811966,-1.02765750885,-0.0839729309082
1586442043.46,51.4103660583,24.1346740723,-153.003921509,-3.69621658325,7.20233154297,5.5450925827,0,0,0,-3.752722218,7.04645420437,1.85732035563,23.0,0.0013111562845,-0.000703114737117,0.000495109224264,-0.0197693761438,-0.049245364964,0.0288762208074,0.280801057816,-1.02445721626,-0.109330177307
1586442043.72,53.1377639771,22.100402832,-152.224014282,-3.32231640816,7.24293422699,5.23532581329,0,0,0,-3.82726602622,7.0240587622,1.85520701136,23.0,0.00137755805548,-0.000707100002181,0.000455931881863,0.235203698277,-0.0575020983815,0.345615327358,0.245007038116,-1.03111362457,-0.0919728279114
1586442043.98,58.1271018982,17.3121051788,-149.163421631,-3.07085800171,7.57463502884,4.62010145187,0,0,0,-3.86331699953,7.06548874574,1.86675062862,23.0,0.00134803217122,-0.00077812698864,0.00039705377577,0.306462526321,-0.0291168745607,0.513639330864,0.151839494705,-1.04876065254,-0.0338425636292
1586442044.4,53.133266449,11.8935956955,-143.391265869,-2.00950431824,7.82176542282,6.00070810318,0,0,0,-3.90581950495,7.00856170264,1.88283850261,22.98,0.00135104347469,-0.000752262896404,0.000440482594466,-0.413495361805,0.129547014832,0.131312772632,0.041784286499,-1.04720425606,-0.156982898712
1586442044.66,50.4673919678,11.0154066086,-141.148025513,-1.53208947182,7.58009386063,6.30078697205,0,0,0,-3.96329070465,6.94740597028,1.8885681201,23.0,0.00141480649177,-0.000722699248062,0.000471592782029,-0.133706644177,0.0876464098692,0.252116531134,0.0108699798584,-1.04004883766,-0.230461597443
1586442044.92,52.0165939331,8.64381217957,-137.555999756,-1.37384057045,7.63647031784,5.97022676468,0,0,0,-4.00719826608,6.9234494913,1.89007326497,23.0,0.00143319498031,-0.00072423679787,0.000471457346403,0.266922295094,0.144489884377,0.454052656889,-0.0473220348358,-1.03609323502,-0.218614578247
1586442045.18,56.1638183594,5.50604724884,-133.192443848,-0.921591818333,8.10393619537,5.31599617004,0,0,0,-4.04684081268,6.91313111675,1.87598818519,23.0,0.00143645968574,-0.000725764383755,0.000448606818032,0.320410043001,0.142235338688,0.413166850805,-0.125908374786,-1.03100156784,-0.171277761459
1586442045.6,68.6708068848,0.767597973347,-119.017608643,-0.200456306338,9.22457695007,3.76530241966,0,0,0,-4.07797565684,6.86647471592,1.85897423947,22.99,0.00142385264108,-0.000710226217642,0.000484850196511,0.235828012228,0.413466215134,0.122649230063,-0.298107862473,-0.984524726868,-0.0657749176025
1586442045.85,69.7211685181,1.25586152077,-114.356147766,-0.169497862458,9.19471645355,3.68732357025,0,0,0,-4.09893229186,6.82449669769,1.86669894902,23.0,0.00143247398261,-0.000712091849178,0.000538479286091,-0.0364095009863,0.368743360043,0.135148331523,-0.315089702606,-0.973845005035,-0.0858788490295
1586442046.11,70.1782989502,0.788959622383,-109.908195496,-0.12447924912,8.62357234955,3.41609668732,0,0,0,-4.14070058737,6.84906561423,1.90989764122,23.0,0.00143191117486,-0.000829305388201,0.000556055082363,0.126341715455,0.327727913857,0.195097178221,-0.33988571167,-0.957748889923,-0.117861747742
1586442046.37,73.4955978394,0.221092060208,-105.953788757,-0.324434071779,9.16069412231,2.7816734314,0,0,0,-4.14331412626,6.86895943508,1.91089157301,23.0,0.00137646151107,-0.000878413291458,0.000554821693571,0.358950436115,0.276324957609,0.102006658912,-0.364755868912,-0.944794654846,-0.103920698166
1586442046.8,97.3399810791,-4.21974277496,-97.0576553345,0.727859735489,10.0024433136,-1.06078803539,0,0,0,-4.16228524176,6.81900976084,1.84698391008,22.99,0.00137870074274,-0.000820908425058,0.000590273797904,0.970860719681,0.140722885728,0.057367246598,-0.475918292999,-0.844807863235,0.14071393013
1586442047.05,104.481201172,-4.5149064064,-96.2323226929,0.934751033783,10.0434970856,-2.15931391716,0,0,0,-4.16811245891,6.73586015246,1.78482857315,23.0,0.00141212236388,-0.000708822049334,0.000644170987703,0.189050301909,0.0094436109066,0.00490024732426,-0.487799882889,-0.801240682602,0.228078603745
1586442047.31,102.309005737,-4.79518890381,-96.1845092773,0.974830031395,10.2135839462,-2.08853006363,0,0,0,-4.17967599978,6.66794894646,1.68620434862,23.0,0.00144413652125,-0.000578628909421,0.00064240478144,-0.528676867485,0.0643454641104,0.073020927608,-0.488517045975,-0.813662528992,0.202494382858
1586442047.57,91.4512023926,-6.45301103592,-94.8398513794,1.17796587944,10.5166530609,-0.186722397804,0,0,0,-4.17273441562,6.5840964427,1.58500187616,23.0,0.0014614327217,-0.000426947202451,0.000652627123628,-1.44587373734,0.153081938624,0.193301677704,-0.495891332626,-0.842556715012,0.0526530742645
1586442048.0,32.2223815918,-4.06617259979,-81.636932373,0.464598476887,4.71413564682,7.59134292603,0,0,0,-4.21035040155,6.64017663124,1.55693013413,22.99,0.00141329009527,-0.000527153986237,0.000519277066683,-1.79384982586,0.632162392139,0.324829995632,-0.411774873734,-0.536782026291,-0.774766206741
1586442048.26,14.0247430801,1.72832381725,-75.7054367065,-0.389340043068,1.60141217709,9.04323863983,0,0,0,-4.25794820765,6.71426798908,1.58872279136,23.0,0.00139113798432,-0.000681403459634,0.000428228431866,-1.08048689365,0.773292422295,0.236570224166,-0.318449258804,-0.267092466354,-0.944088935852
1586442048.52,5.56090545654,9.94514942169,-72.2797775269,-1.85789191723,0.808587193489,10.2393722534,0,0,0,-4.22592045905,6.64228180531,1.67000477398,23.0,0.00135920892912,-0.000708624495687,0.00054881709791,-0.52404999733,0.636055409908,0.156309470534,-0.19223856926,-0.101877212524,-1.02434849739
1586442048.78,0.869330048561,14.5823326111,-70.2273254395,-2.59921789169,0.00346040329896,9.95190906525,0,0,0,-4.20227165396,6.58506743581,1.74101288089,23.0,0.0013337347913,-0.000738013571062,0.000637887006532,-0.188314959407,0.329806685448,0.167845979333,-0.111898422241,-0.00201368331909,-1.04638886452
1586442049.19,4.69163751602,13.2339668274,-63.1848564148,-2.16653299332,0.507450222969,9.52528476715,0,0,0,-4.21838969222,6.53988579472,1.77988310192,22.98,0.0013482810349,-0.000793027612841,0.000639100248228,0.134652107954,-0.0245735067874,0.235512152314,-0.119081735611,0.00498509407043,-1.04498958588
1586442049.45,7.30885076523,13.186337471,-61.0692558289,-2.29416918755,1.5360263586,9.85894489288,0,0,0,-4.17614272276,6.44478272096,1.79577510221,23.0,0.0013387365398,-0.0007286576392,0.000713891515433,0.110200800002,-0.0284299254417,0.156597062945,-0.114562988281,-0.0181112289429,-1.04690122604
1586442049.72,6.40521526337,11.6759605408,-59.6153678894,-1.92122459412,1.07254362106,9.7191286087,-1.7037,6.1728,0.343869315747,-2.98969082051,6.28319604238,0.725527812639,23.0,0.000942651637669,-5.01304619648e-06,0.000546702456333,-0.120702371001,-0.125224858522,0.127703681588,-0.133920907974,0.0079870223999,-1.04066944122
1586442049.98,6.18425989151,10.901099205,-58.2414741516,-1.91603529453,1.12125241756,9.69626998901,0,0,0,-2.96960861814,6.2515457914,0.732501455601,23.0,0.00093246349025,8.77959136615e-06,0.000565241607947,-0.0182688254863,-0.0192016363144,0.145828023553,-0.143400907516,0.0251579284668,-1.03772330284
1586442050.4,11.2671957016,9.56420516968,-52.0380363464,-1.80474448204,2.03338813782,9.59414386749,0,0,0,-2.92990725606,6.20767541473,0.737046456989,22.98,0.000902800463101,3.27183855486e-05,0.000581879591265,-0.0693455412984,0.0171728450805,0.106970220804,-0.137761831284,-0.000564813613892,-1.04051852226
1586442050.66,10.6534814835,9.02112865448,-50.5013504028,-1.69034922123,1.52884459496,9.68941783905,0,0,0,-2.91217462033,6.19237045183,0.762764734951,23.0,0.000876694125351,-1.2132932046e-05,0.000608878895331,-0.0407308340073,-0.0344514884055,0.184800475836,-0.13803768158,0.0250864028931,-1.03687286377
1586442050.92,11.5683507919,7.97446966171,-48.3623580933,-1.37820827961,1.66774296761,9.5268201828,0,0,0,-2.90425238994,6.17881701478,0.77999035599,22.99,0.00087353785485,-6.00806455914e-05,0.00060982653151,0.067258618772,-0.0869810432196,0.193742662668,-0.142863750458,0.027357339859,-1.0335290432
1586442051.18,12.2791194916,6.47362422943,-46.6383972168,-0.980863928795,1.8757237196,9.03870201111,0,0,0,-2.91017397291,6.17830099869,0.765053469548,23.0,0.000894739837105,-9.35440981311e-05,0.000528751112725,0.00156313204207,-0.0769227817655,0.156009197235,-0.15743970871,0.03040599823,-1.03185772896
1586442051.6,17.9167137146,4.71679925919,-42.9691925049,-0.767406880856,3.07298874855,9.17149448395,0,0,0,-2.88376406571,6.14177129401,0.756104915561,22.98,0.000901458589739,-8.23339369523e-05,0.000506020479493,0.288683891296,-0.0533118881285,-0.0144571075216,-0.163509130478,-0.0231950283051,-1.03198313713
1586442051.86,21.7875385284,4.91352128983,-43.4094848633,-0.885689795017,4.0454120636,9.14031219482,0,0,0,-2.84827298926,6.10378077343,0.740083728957,23.0,0.000893671877144,-1.02003195009e-05,0.000515854663969,0.358680665493,0.0375278405845,-0.031970448792,-0.161744356155,-0.0853226184845,-1.0397913456
1586442052.12,25.8610229492,5.28318357468,-43.3982315063,-1.20955348015,4.67509126663,9.1091337204,0,0,0,-2.79537041856,6.06627503577,0.740696885338,23.0,0.000840279306326,6.12392256546e-05,0.000568639224428,0.324159175158,0.0192798692733,0.0144295394421,-0.157453775406,-0.150043725967,-1.03775310516
1586442052.38,27.5182552338,4.83587169647,-43.4433631897,-0.804804742336,4.76428174973,9.04916191101,0,0,0,-2.76195594546,6.01779313626,0.749410027325,23.0,0.000844331654464,0.000103967014168,0.00063216998212,-0.0428929924965,-0.0699669197202,0.0253282487392,-0.163165569305,-0.179611444473,-1.03039717674
1586442052.8,18.9437160492,5.19865083694,-41.5707778931,-1.26479399204,2.66403865814,8.89160346985,0,0,0,-2.74300372054,6.03105597745,0.758839419484,22.99,0.000777200158608,1.42258890916e-05,0.000571955877018,-0.210277721286,0.0516839288175,-0.000457465590443,-0.147644281387,-0.0359175205231,-1.04007411003
1586442053.05,17.4363555908,5.91916942596,-42.0450935364,-1.25466394424,2.63867020607,8.7585515976,-2.4833,7.9078,0.25071739736,-2.67829930753,6.72191585957,0.307278259659,23.0,0.000509173289628,-4.14939134363e-05,0.000132929059798,-0.0746026709676,0.0486798584461,-0.103750832379,-0.139953374863,-0.0149784088135,-1.04107713699
1586442053.31,15.9065685272,6.98879575729,-42.9365997314,-1.08593130112,2.81098079681,8.88395404816,0,0,0,-2.67002086974,6.71066078638,0.280578188719,23.0,0.000527699351604,-1.84736239631e-05,5.68840053265e-05,-0.196848809719,0.096675015986,-0.0753045156598,-0.131857395172,0.00434613227844,-1.04092025757
1586442053.57,12.9352960587,8.85977840424,-43.2261810303,-1.35042011738,2.21377897263,9.11494350433,0,0,0,-2.6639435215,6.69556113454,0.261602461387,23.0,0.000555077409445,-1.15922761806e-05,3.78887516595e-06,-0.278461039066,0.214373365045,-0.0724613815546,-0.10768866539,0.0481014251709,-1.04195976257
1586442054.0,5.69667720795,13.5740556717,-43.9385452271,-2.42574858665,0.425281763077,9.88702583313,0,0,0,-2.64963938262,6.66580624799,0.29070014203,22.99,0.000533908646075,-9.89339766736e-05,6.64055978901e-05,-0.0248804744333,-0.144563615322,0.0644408166409,-0.0390319824219,0.1592669487,-1.03803014755
1586442054.26,6.85718345642,11.4140119553,-43.2586402893,-2.29998636246,0.938740849495,9.59104824066,0,0,0,-2.63382869213,6.6610844493,0.300746177906,23.0,0.00047270890136,-0.000134172278077,7.30152030444e-05,0.14616329968,-0.186702638865,0.0896953269839,-0.0669412612915,0.147423505783,-1.03435659409
1586442054.52,7.62050104141,9.39590454102,-43.1798286438,-1.66233456135,1.50958144665,9.41039276123,0,0,0,-2.6149234927,6.64570301692,0.28560677456,23.0,0.000462435469392,-9.60587044741e-05,4.32602740433e-05,-0.0363841690123,-0.15318544209,-0.00954866409302,-0.098240852356,0.135281085968,-1.0314013958
1586442054.78,7.45606231689,8.61122608185,-43.6859169006,-1.17336416245,1.25300049782,9.12122917175,0,0,0,-2.61581435129,6.63028441992,0.259422351421,23.01,0.00051384504194,-9.75410190683e-05,-3.7768571848e-05,0.0728435888886,0.0356458127499,-0.0408500470221,-0.113695144653,0.130548715591,-1.02464699745
1586442055.2,7.64899492264,9.71090698242,-43.4771957397,-1.45982062817,1.24242210388,9.55167198181,0,0,0,-2.60104279856,6.59309676314,0.253451978353,22.99,0.000547810595532,-0.000105363425412,-4.38101549812e-05,0.0900767743587,-0.110085323453,0.0570558123291,-0.0953578948975,0.132246732712,-1.03003358841
1586442055.45,8.89571857452,8.80589580536,-43.1078605652,-1.4619345665,1.47604238987,9.42860221863,0,0,0,-2.59164284574,6.57689777505,0.244127649284,23.0,0.000554943130513,-0.000109546949445,-6.89259334686e-05,0.0570371747017,-0.0330328978598,0.0411480665207,-0.10545873642,0.116025686264,-1.03044509888
1586442055.72,8.89961338043,8.71255588531,-42.9872398376,-1.56288707256,1.14052426815,9.80007171631,0,0,0,-2.58679855239,6.55786900592,0.263166623506,23.0,0.000541373568112,-0.000171669300178,-3.35604425661e-05,-0.0636100843549,-0.0195696949959,-0.027921795845,-0.10671043396,0.114837646484,-1.03259587288
1586442055.97,8.7980222702,8.25385093689,-43.5388755798,-1.37170851231,1.25645852089,9.847697258,0,0,0,-2.57994809174,6.53162317655,0.279285761894,23.01,0.000547626595892,-0.000211243331239,7.44125716022e-06,0.0574313178658,-0.083057589829,-0.0181779265404,-0.117460012436,0.113837718964,-1.02892422676
1586442056.39,12.5376358032,6.73454236984,-42.2940673828,-1.22138035297,2.3872821331,9.08154582977,0,0,0,-2.55327714596,6.51267203657,0.245753360553,22.99,0.000535377717067,-0.000163867627635,-6.44005995383e-05,0.0734679624438,0.0470288172364,0.0694759339094,-0.134512424469,0.0581862926483,-1.03279900551
1586442056.65,12.9902820587,7.15365552902,-41.6434402466,-1.3275988102,2.51174664497,9.41561698914,0,0,0,-2.52678735613,6.49765769427,0.230571607423,23.01,0.000516469279419,-0.000107031393212,-7.62353431108e-05,0.0305004417896,0.0459201596677,0.0372312888503,-0.1224629879,0.0593304634094,-1.03959560394
1586442056.91,13.2225179672,7.43560171127,-41.2607955933,-1.38731837273,2.58674287796,9.54127788544,0,0,0,-2.4956870343,6.47890947396,0.221604223885,23.01,0.000495223115982,-4.31819137991e-05,-6.44483865862e-05,-0.0363647975028,0.0113748023286,0.0222228467464,-0.117015838623,0.056535243988,-1.0391523838
1586442057.17,13.1821956635,7.61402082443,-41.019329071,-1.2948628664,2.1602165699,9.67926216125,0,0,0,-2.48095148429,6.45390649216,0.230635233429,23.0,0.000495920186402,-5.33329398014e-05,-2.93674788392e-05,0.035531077534,0.0241138003767,0.0220365803689,-0.112973451614,0.0612888336182,-1.04072165489
1586442057.59,14.5085601807,7.42254686356,-40.6698303223,-1.46502256393,2.09887576103,9.54757595062,0,0,0,-2.4682587539,6.43076006765,0.243774955677,22.99,0.000460080070693,-0.000113894513752,-7.89343154625e-06,0.0716693773866,-0.0593140684068,0.00961497239769,-0.113552808762,0.0442929267883,-1.04213666916
1586442057.85,15.4336767197,6.64086771011,-41.1514587402,-1.17622494698,2.33724665642,9.22386074066,0,0,0,-2.46806715943,6.42052825633,0.237939334738,23.0,0.000452752548779,-0.000160149858472,-3.75902007879e-05,0.105080768466,-0.0768110379577,-0.0520110204816,-0.128998041153,0.0265035629272,-1.04332542419
1586442058.11,17.0403995514,6.22396659851,-42.405380249,-1.13954412937,3.12599229813,9.16410636902,0,0,0,-2.44500988467,6.40941214715,0.217678627211,23.0,0.000438969283642,-0.000112070501284,-6.54362386852e-05,0.148814186454,-0.0691577792168,-0.12028516829,-0.141014575958,-0.0128893852234,-1.04069900513
1586442058.37,18.833404541,5.96379613876,-43.6350288391,-1.10314059258,3.86138367653,9.2610206604,0,0,0,-2.39942590317,6.3928429447,0.195761829283,23.0,0.000423359682045,1.65295683454e-05,-6.09167919097e-05,0.163022443652,-0.0288069248199,-0.0272884983569,-0.150333881378,-0.0498285293579,-1.04068446159
1586442058.8,19.7898178101,4.28179645538,-41.8494758606,-0.773662507534,2.91450667381,8.87263584137,0,0,0,-2.39989130814,6.37633667508,0.178574079465,22.99,0.00041618727352,-5.66187315398e-05,-0.000119680361656,0.060462217778,-0.108201816678,0.0247918106616,-0.164681196213,-0.0467824935913,-1.03633737564
1586442059.06,20.438583374,3.55151343346,-42.7614250183,-0.578699350357,3.39999842644,8.71171379089,0,0,0,-2.39526654876,6.37261122227,0.144343855428,23.0,0.000422024937086,-6.07081598768e-05,-0.000201319545597,-0.010442731902,-0.0655174329877,-0.135345757008,-0.180799007416,-0.0657868385315,-1.03059053421
1586442059.32,18.9980945587,4.26711940765,-44.9851074219,-0.844738841057,3.34736585617,9.10393714905,0,0,0,-2.37671622814,6.36514815312,0.126757450131,23.0,0.000400729946511,-3.10611396513e-05,-0.000227332641883,-0.158111795783,0.0304199811071,-0.207495719194,-0.181796550751,-0.0631821155548,-1.02597212791
1586442059.57,17.0862197876,5.54555177689,-46.7095680237,-1.01619577408,3.04070091248,9.58706855774,0,0,0,-2.35243050136,6.34176004256,0.133977404223,23.01,0.000387676094237,6.75210893574e-07,-0.000183048048593,-0.0649780109525,0.064729899168,-0.182715073228,-0.177379131317,-0.0495984554291,-1.03269982338
1586442060.0,10.2763853073,3.9667160511,-49.4416236877,-1.14457213879,2.00055551529,9.58079242706,0,0,0,-2.32098060595,6.33771979487,0.127794169471,22.99,0.000299772510717,4.81293807185e-05,-0.00019171683152,-0.417797327042,-0.0642895698547,0.0170879084617,-0.210037469864,0.0309581756592,-1.01101326942
1586442060.27,6.59534788132,3.51397943497,-48.9964523315,-1.04608726501,1.21089160442,9.56927204132,0,0,0,-2.30666649009,6.34856904783,0.121285171981,22.99,0.000215721047221,6.42030212602e-05,-0.000219991422123,-0.238272577524,-0.0187724847347,0.0870637595654,-0.215837001801,0.0937676429749,-0.997614860535
1586442060.53,3.97507739067,3.27043175697,-47.8041725159,-0.630803525448,0.583922088146,9.46513175964,0,0,0,-2.30540739912,6.34437385059,0.103083630218,23.0,0.000202561416354,4.6100627862e-05,-0.000275380344166,-0.185199052095,0.0146187832579,0.125115349889,-0.213548898697,0.14586186409,-0.989126682281
1586442060.78,3.89439940453,4.31323337555,-45.9865570068,-0.471906512976,1.11981987953,9.74055099487,0,0,0,-2.26943428862,6.31517748133,0.0837756139002,23.0,0.00025311744044,0.000131737435645,-0.000279430303925,0.040499124676,0.160255283117,0.208660230041,-0.190503358841,0.163256168365,-0.98960351944
1586442061.2,-0.698349475861,3.7974486351,-29.7675800323,-1.06377530098,-0.534896373749,9.54408836365,0,0,0,-2.27089424073,6.32254084753,0.0839574712436,22.98,0.000173929530724,5.26924869001e-05,-0.000324195652045,-0.117047153413,-0.166945189238,0.482944428921,-0.0977518558502,0.356662273407,-0.947415351868
1586442061.46,-1.05916428566,2.17136716843,-25.0854587555,-0.66593426466,0.145662143826,9.45795822144,0,0,0,-2.24158800531,6.34294281185,0.0555192521983,23.0,0.000117438291948,0.000114879975017,-0.000386873243575,-0.0731781199574,-0.120629385114,0.329875260592,-0.0862743854523,0.396924734116,-0.9298787117
1586442061.72,-3.17703795433,0.803722262383,-20.9304866791,0.220150843263,0.269434213638,9.99629688263,0,0,0,-2.17222823816,6.31321636823,0.043328533607,23.0,0.000186186333937,0.000270514173376,-0.000350334417862,-0.307610660791,-0.164473071694,0.467301130295,-0.0752789974213,0.439248800278,-0.902877807617
1586442061.98,-5.06901073456,-0.0595443695784,-14.434630394,-0.798315525055,-0.503435671329,9.93061542511,0,0,0,-2.13476363984,6.35420203523,0.0616993964025,23.0,2.89378660986e-05,0.000340645954586,-0.000320743104935,-0.0729620456696,-0.120303057134,0.588732242584,-0.0375244617462,0.50635766983,-0.870071649551
1586442062.39,-3.97890973091,0.613758087158,6.68620586395,-0.329753756523,-1.05933225155,9.66209793091,0,0,0,-2.12899254461,6.36681879478,0.0659370695806,22.98,-1.47961694116e-05,0.000267283202545,-0.000344358298568,0.30895999074,0.108822457492,0.651378273964,0.157691955566,0.558763980865,-0.849727153778
1586442062.65,-1.74354565144,2.24717760086,13.8027486801,-0.555619478226,-0.340185075998,9.82635688782,0,0,0,-2.11370028412,6.3776176354,0.0715757033943,22.99,-4.83535415338e-05,0.000259178780448,-0.000339607060785,-0.0375583842397,0.0932566896081,0.624712586403,0.252263307571,0.528574705124,-0.864669799805
1586442062.91,-3.38749241829,3.09541916847,21.2476768494,-0.70204025507,-0.138832122087,9.98645114899,0,0,0,-2.06890595654,6.39356484909,0.0790165823569,22.99,-8.26054284249e-05,0.000345137413707,-0.00030104800419,-0.298957586288,-0.00529587408528,0.720233619213,0.325432777405,0.549099206924,-0.831990003586
1586442063.17,-6.44893598557,2.90548825264,30.1081085205,-0.526339590549,-1.188986063,9.96578979492,0,0,0,-2.05383428818,6.39319318637,0.0994006559297,22.99,-8.85040515061e-05,0.000328008197037,-0.000258676462235,-0.259853988886,-0.141827791929,0.775756776333,0.398946762085,0.571745634079,-0.788202285767
1586442063.59,-7.22732639313,1.2375549078,48.9192810059,-0.651817977428,-1.48632621765,9.57022285461,0,0,0,-2.05410821736,6.43918711734,0.0986561332072,22.97,-0.000175969335039,0.000278250137835,-0.000289229630603,0.0262104030699,-0.0464513972402,0.287603616714,0.531104564667,0.504783630371,-0.776954174042
1586442063.85,-7.12730979919,1.2351680994,51.2212219238,-0.461603462696,-1.29485249519,9.28851985931,0,0,0,-2.05635315716,6.47900336428,0.0655256029355,22.98,-0.000225478720255,0.000262623215544,-0.000373726345041,-0.0333771146834,-0.00500530097634,0.154159262776,0.547212600708,0.487636089325,-0.776849031448
1586442064.11,-6.54756355286,1.89469003677,53.0247421265,-0.178949296474,-1.10050082207,9.24599933624,0,0,0,-2.04833321367,6.5010174272,0.0164156808517,22.98,-0.000195717212667,0.000265740154933,-0.000468578480084,0.104571141303,0.0942982807755,0.175332248211,0.568646430969,0.473697185516,-0.776040554047
1586442064.37,-4.76954364777,3.81156015396,54.8708343506,-0.545350790024,-0.750008761883,9.74426937103,0,0,0,-2.031270036,6.51051139421,0.008615968802,22.97,-0.000174131780764,0.000278434784087,-0.000471246374571,0.184310227633,0.162469610572,0.211236596107,0.606621980667,0.433880090714,-0.773119688034
1586442064.79,6.81640815735,3.98657226562,62.1967086792,-0.831606268883,1.15747833252,9.85826873779,0,0,0,-2.01565838876,6.53731234386,0.0244402122913,22.97,-0.00020455853599,0.000277616261232,-0.000444596988148,0.253386110067,-0.199124261737,0.174064218998,0.659808397293,0.228049993515,-0.831742048264
1586442065.05,8.98556423187,0.819767653942,63.8823776245,-0.201292037964,1.29347765446,9.82597827911,0,0,0,-2.01611406874,6.54385781625,0.0455705729025,22.98,-0.000216981093586,0.000229461180114,-0.000418857607616,0.190616428852,-0.289070695639,0.231615483761,0.63054394722,0.178144931793,-0.868001937866
1586442065.31,12.4163837433,-2.09996318817,66.951171875,0.261207699776,2.43797469139,9.32551765442,0,0,0,-1.99822457888,6.58153319519,0.0182231346157,22.97,-0.000236890704119,0.000295851097938,-0.000467364395169,0.245437756181,-0.102938711643,0.329648673534,0.609350442886,0.0912306308746,-0.904819250107
1586442065.57,13.1638240814,-3.18268489838,70.3166809082,0.588576614857,2.56623601913,9.32571125031,0,0,0,-1.9787395185,6.61180773864,-0.00877906677097,22.97,-0.000227767877544,0.000363513644436,-0.000508999076775,-0.125057995319,0.0325329639018,0.291553914547,0.609315156937,0.0496833324432,-0.907783031464
1586442066.0,10.3687829971,-3.5672249794,79.2615814209,0.659889519215,1.65786504745,9.57262420654,0,0,0,-1.97505552209,6.63676080943,-0.00989117097293,22.96,-0.000217436729218,0.000341876604327,-0.00052126687817,-0.274275243282,0.0313110686839,0.156139597297,0.641221284866,0.0146553516388,-0.889456748962
1586442066.26,8.32684993744,-3.28479886055,80.571762085,0.909794986248,1.27721381187,9.27811050415,0,0,0,-1.9747581858,6.65029308994,-0.0529884513847,22.97,-0.000144855126918,0.00031231313747,-0.000603585711347,-0.0869423374534,0.0677727162838,0.085752479732,0.648109436035,0.0365474224091,-0.882562160492
1586442066.52,7.24196529388,-2.11346745491,81.2098083496,0.78548592329,1.09044921398,9.30103492737,0,0,0,-1.97249612021,6.66276336619,-0.100065160557,22.97,-5.62219466289e-05,0.000281779161101,-0.000688522164113,-0.0564411357045,0.13637021184,0.0145398089662,0.66441488266,0.0466046333313,-0.863944292068
1586442066.78,7.17446327209,-0.154290944338,81.5025482178,0.0602860599756,1.12887847424,9.62164211273,0,0,0,-1.9721842817,6.68115388507,-0.110732408712,22.97,-4.8997313055e-05,0.000261637123255,-0.000711362017012,-0.0400975383818,0.176087766886,-0.00646412512287,0.688094615936,0.0529406070709,-0.844196081161
1586442067.2,3.38600349426,4.49486684799,81.5552597046,-0.332462310791,0.598231494427,10.042304039,-3.5103,5.4032,0.286392600146,-2.24959347298,6.43629875545,-0.0734076622608,22.95,8.05976975541e-05,6.10089576766e-07,-0.000675109544725,-0.10919573158,0.263988286257,-0.0396907329559,0.744625806808,0.11221075058,-0.784916639328
1586442067.46,2.329859972,9.35975933075,80.6618270874,-1.72978186607,0.661627113819,9.67497348785,0,0,0,-2.23707842506,6.46719507202,-0.0781163534697,22.97,5.30724319162e-05,5.47898924959e-05,-0.000673136585787,-0.139014452696,0.491768985987,-0.134466618299,0.794803142548,0.139694929123,-0.721415519714
1586442067.72,1.289681077,15.0586824417,79.4738388062,-2.79157757759,0.178242042661,9.21483230591,0,0,0,-2.2372791279,6.49820314793,-0.0941933407994,22.96,3.6256699316e-06,4.60504157937e-05,-0.000718523832268,0.0538803637028,0.468779355288,-0.0652328208089,0.843513965607,0.17075252533,-0.643782377243
1586442067.97,3.09520745277,19.8067741394,79.5015792847,-3.07631349564,0.473253667355,8.8992767334,0,0,0,-2.22929496008,6.51791236369,-0.121054288573,22.97,5.50913757509e-05,3.85500547061e-05,-0.000774966240767,0.216654732823,0.321614027023,0.0449828840792,0.88840508461,0.154503583908,-0.574938058853
1586442068.4,12.004940033,19.7851638794,84.9023971558,-3.02368092537,1.72625672817,8.91080379486,0,0,0,-2.21970210818,6.54669250233,-0.13303729788,22.95,0.000117169896073,-2.32472830077e-06,-0.000797934884222,0.16799941659,-0.0459924377501,0.130832955241,0.903619289398,0.0169570446014,-0.576504230499
1586442068.66,13.6281747818,19.426864624,85.2375717163,-3.14615750313,2.20282363892,9.20396995544,0,0,0,-2.20892426757,6.56479335663,-0.122796451752,22.97,0.000141572084749,3.58492432269e-06,-0.000760492865373,0.0674568191171,-0.0457003712654,-0.0454381145537,0.900009870529,-0.0041081905365,-0.58164525032
1586442068.92,13.0867576599,18.594367981,84.2167358398,-3.1218111515,2.51575922966,9.13158893585,0,0,0,-2.1954059382,6.59596877321,-0.122090357484,22.96,0.000142820393609,8.85129979528e-05,-0.000744799586622,-0.0872761085629,-0.102476797998,-0.0392451882362,0.893726110458,0.00583243370056,-0.594698429108
1586442069.17,12.9672498703,18.1897258759,84.3210601807,-3.07430481911,2.23316693306,8.65884971619,0,0,0,-2.19349747419,6.63005318682,-0.150592337685,22.97,0.000140707069785,0.000114735434114,-0.000820158358371,0.0337682701647,0.0609286129475,0.0625364556909,0.891432523727,0.00349402427673,-0.601119756699
1586442069.6,15.2837266922,21.1463718414,84.8960342407,-2.77488732338,2.39984917641,9.07619380951,-4.1277,8.8883,0.261618153767,-2.50332157965,7.05408432377,-0.403027194123,22.94,7.45216010953e-05,0.000202650103874,-0.000958855658269,-0.0486403740942,-0.0167861562222,-0.167521804571,0.917218923569,-0.013190984726,-0.554144382477
1586442069.86,14.0298366547,20.8262901306,83.3969650269,-3.73373937607,2.36695432663,9.37891960144,0,0,0,-2.49720787624,7.07641003769,-0.38527478883,22.96,2.32959888727e-05,0.000236356375505,-0.000876437016418,-0.0736340880394,-0.13042242825,-0.0468075275421,0.912200689316,0.0121376514435,-0.562476873398
1586442070.12,11.2957315445,18.6570777893,82.1984176636,-3.35459637642,1.74610447884,9.58173274994,0,0,0,-2.49182565245,7.0931216301,-0.368440804653,22.96,-2.17457475203e-05,0.000224653030786,-0.000798247983221,-0.22255782783,-0.22783729434,-0.0809267163277,0.892797708511,0.0440516471863,-0.596436500549
1586442070.38,8.08957672119,16.2118053436,80.1349563599,-2.89573597908,1.38150835037,9.64783287048,0,0,0,-2.48490286756,7.11137003214,-0.35886842517,22.97,-5.45340801744e-05,0.000238854179204,-0.00074353429389,-0.213235646486,-0.258247584105,-0.166638195515,0.863982439041,0.088853597641,-0.637374162674
1586442070.8,-2.68800020218,12.6505079269,71.6322097778,-1.98953783512,-0.404535084963,9.22318458557,0,0,0,-2.46895122961,7.14329707002,-0.392572379532,22.95,-2.06904242312e-05,0.000245249908018,-0.000801876900935,-0.0462472438812,0.0943116918206,-0.022558869794,0.794835090637,0.285798549652,-0.665554285049
1586442071.06,-0.504393279552,14.0697259903,72.1572036743,-1.81504380703,-0.192597925663,9.28056430817,0,0,0,-2.44994133254,7.16162950417,-0.419733691642,22.96,0.000100899647836,0.000219953290486,-0.000843760650967,0.307177752256,0.106561928988,0.0364132262766,0.812375307083,0.255586862564,-0.657868385315
1586442071.32,3.54826927185,14.5867967606,71.8672485352,-2.25868105888,0.484533369541,9.29417419434,0,0,0,-2.43690738844,7.18175228078,-0.440708154968,22.97,0.000146407376518,0.000196439703637,-0.000876558594904,0.348294556141,-0.0315576791763,-0.0533565916121,0.816737174988,0.213969707489,-0.670154571533
1586442071.58,8.26381492615,13.8915395737,71.0322113037,-2.14734625816,1.53915655613,9.22317790985,0,0,0,-2.42413190446,7.20895576831,-0.460420152197,22.96,0.000190971580862,0.000230565670664,-0.000910644732854,0.461895167828,-0.0595942251384,-0.0303491987288,0.813890457153,0.15706372261,-0.697098970413
1586442071.99,12.6749773026,11.3782653809,71.0108718872,-1.67384672165,2.07421779633,9.17115497589,0,0,0,-2.40283353503,7.24591380382,-0.483775764363,22.95,0.000247550721445,0.000220716206242,-0.000948611913488,-0.0724196434021,-0.0362157821655,-0.0875175073743,0.784511089325,0.0957221984863,-0.740316152573
1586442072.26,11.1873083115,11.9434537888,69.5829620361,-1.99429357052,1.98147165775,9.46217441559,-4.1927,8.6725,0.25071739736,-2.62565567603,7.45500003101,-0.561613604815,22.96,0.000133672423572,0.000413919635809,-0.000993024792139,-0.193718090653,0.0332958996296,-0.14761389792,0.785228252411,0.125297307968,-0.737317323685
1586442072.52,8.4854888916,12.6301164627,67.7089080811,-2.04962277412,1.58136618137,9.68484401703,0,0,0,-2.61253442613,7.47780779873,-0.562426120866,22.96,0.000154421275194,0.000451279265523,-0.000955565301347,-0.235451802611,0.0155515987426,-0.184278190136,0.784084796906,0.177589178085,-0.724247217178
1586442072.78,5.38450527191,12.3616867065,65.6181411743,-2.18644547462,1.10672426224,9.70974826813,0,0,0,-2.60405679298,7.49946907703,-0.564298597668,22.96,0.000136035395215,0.000496740228896,-0.000925866291473,-0.198233142495,-0.0971913337708,-0.138649359345,0.771399497986,0.232200622559,-0.719944000244
1586442073.2,3.00016784668,12.0893774033,63.1931762695,-2.0381975174,0.499004125595,9.64219760895,0,0,0,-2.5845790563,7.52831126556,-0.58010692057,22.95,0.000139805478121,0.000496415413426,-0.000915669324973,-0.0673726126552,0.072430819273,-0.0755175799131,0.755854606628,0.281677246094,-0.720907211304
1586442073.46,2.36182022095,13.0150756836,62.1999397278,-2.42530918121,0.467710375786,9.69337272644,0,0,0,-2.57840614886,7.54383732719,-0.583732749041,22.96,9.30637562677e-05,0.000513464299671,-0.000891256017216,0.0298820436001,0.0592149756849,-0.0951081514359,0.758054971695,0.299796819687,-0.70613527298
1586442073.72,2.73156547546,13.6383657455,61.0210113525,-2.10325336456,0.698081552982,9.50502204895,0,0,0,-2.56497825864,7.57152528547,-0.595823352628,22.95,0.000138877918056,0.000565672230179,-0.000892570463946,0.0283084828407,0.0699140205979,-0.0977724790573,0.758672475815,0.304201602936,-0.703098535538
1586442073.98,2.46972632408,14.2769546509,60.0132255554,-2.1602230072,0.549976110458,9.3257484436,0,0,0,-2.55015710548,7.59886766887,-0.616281665726,22.96,0.00019548066605,0.000594308449534,-0.000921386438515,-0.0261649489403,0.0276349503547,-0.0915959477425,0.758466243744,0.314528465271,-0.69770860672
1586442074.39,-0.645202040672,14.3368148804,55.272315979,-2.64677000046,-0.382270634174,9.5675573349,0,0,0,-2.53042033913,7.61205393223,-0.636308924374,22.95,0.000147903175654,0.00053472706252,-0.000913303240043,-0.0634387210011,-0.118589408696,-0.136667490005,0.732042312622,0.380466461182,-0.691517353058
1586442074.65,-0.858220338821,13.1305122375,53.7411308289,-2.07007837296,-0.113949470222,9.45738601685,0,0,0,-2.51347263217,7.63226819261,-0.655415524055,22.96,0.000182994364942,0.000540100588582,-0.000930027695242,0.00255480408669,-0.0576198138297,-0.123979151249,0.710379123688,0.396138191223,-0.705194473267
1586442074.91,-0.9693582654,13.1377305984,52.3498039246,-2.20612478256,-0.202092036605,9.53172779083,0,0,0,-2.49796507994,7.64681329995,-0.671043564375,22.96,0.000188394460098,0.000530905429655,-0.00093438864338,0.0317700207233,0.0347979478538,-0.104233644903,0.698395729065,0.409333229065,-0.711272001266
1586442075.16,0.0195570904762,13.6091451645,50.8694038391,-2.3184273243,0.154195651412,9.46309661865,0,0,0,-2.4883772673,7.66677118246,-0.686629402155,22.96,0.000186132649426,0.000563416687905,-0.000946257299684,0.155252978206,0.0265680253506,-0.158891096711,0.698189496994,0.402767181396,-0.713124275208
1586442075.6,1.81482887268,13.8751478195,46.5071563721,-2.12009215355,0.350445240736,9.50022983551,-4.4848,8.2478,0.245762508084,-2.70659295629,7.76446715309,-0.673111672853,22.95,1.73134506873e-05,0.00085027181286,-0.000933523815376,0.103127233684,-0.0283390320837,0.0180162489414,0.670095205307,0.4042532444,-0.73454117775
1586442075.86,3.17632198334,13.3016023636,46.8744087219,-2.08045244217,0.737465381622,9.65278911591,0,0,0,-2.69241329002,7.79114735909,-0.679713810607,22.96,5.59463984253e-05,0.000895632408772,-0.000911762199494,0.040898475796,-0.0708803534508,0.00982359144837,0.667666196823,0.38613653183,-0.75198841095
1586442076.11,3.75541687012,12.9637966156,46.8910713196,-2.50361514091,0.774368166924,9.70274829865,0,0,0,-2.69367485769,7.8032471472,-0.681088033662,22.96,-9.57161454662e-06,0.000928644452859,-0.000883964170192,0.014594944194,-0.00734627339989,-0.0209242161363,0.666361093521,0.377357721329,-0.762327671051
1586442076.37,3.73058271408,13.2504920959,45.763469696,-2.21446204185,0.743106782436,9.5514831543,0,0,0,-2.6837670303,7.8239931133,-0.690902885831,22.96,-1.9564962549e-06,0.000954859380719,-0.000879642387645,0.0122539699078,0.046727810055,-0.159898370504,0.657727241516,0.382037639618,-0.760911226273
1586442076.8,5.57393121719,14.9257154465,37.9773979187,-2.65663480759,0.87993812561,9.4374332428,0,0,0,-2.66630433719,7.84159969385,-0.711307391323,22.95,-3.02885705568e-05,0.00094574788524,-0.000880128833338,0.0891693010926,-0.0641644075513,-0.215193629265,0.621989488602,0.395456314087,-0.787029743195
1586442077.06,5.59960460663,14.3447599411,35.1747627258,-2.36285448074,0.830313682556,9.52680683136,0,0,0,-2.64643693448,7.85301203043,-0.723291329988,22.95,-1.4974865301e-05,0.000924662565153,-0.00086943684235,0.075214356184,-0.0557899512351,-0.218921899796,0.592006206512,0.402170658112,-0.800268650055
1586442077.32,6.83882522583,14.2840251923,32.9784698486,-2.4179725647,1.36595237255,9.47398948669,0,0,0,-2.63889836167,7.87590250044,-0.730822573651,22.96,-1.42716535324e-05,0.000975886043956,-0.000862218607708,0.102668255568,-0.045686956495,-0.12934358418,0.572332143784,0.394556999207,-0.820257425308
