Timestamp,Roll,Pitch,Yaw,Acc_X,Acc_Y,Acc_Z,USBL_X,USBL_Y,Depth,Est_X,Est_Y,Est_Z,Temp,State_6,State_7,State_8,Gyro_X,Gyro_Y,Gyro_Z,Mag_X,Mag_Y,Mag_Z
1586422808.43,0.477677494287,6.14080524445,7.67272996902,0,0,0,-1.6196,3.6014,0.560893466031,-1.6196,3.6014,0.560893466031,26.74,0,0,0,,,,,,
1586422808.48,38.6756973267,-2.77950692177,-107.972946167,0.44564846158,6.13207530975,7.68009662628,0,0,0,-1.6196,3.6014,-0.56089346603,26.81,-3.02627990426e-06,6.40940022009e-07,2.7369390133e-06,0.00668969145045,0.00157039635815,-0.00703334948048,-0.652707576752,-0.612245798111,-0.507549524307
1586422808.74,9.71114826202,13.387799263,144.803436279,-2.26994371414,1.94983708858,9.67517375946,0,0,0,-1.61960034469,3.60139884656,-0.560892570439,26.65,-2.78464483609e-06,3.48070714789e-05,2.93815093029e-05,-0.437147587538,0.203966349363,0.0186784360558,0.49757194519,-0.58235001564,-0.654322862625
1586422809.0,9.23711204529,13.6761608124,144.869979858,-2.34435772896,1.81670856476,9.63942050934,0,0,0,-1.61960252572,3.60139159718,-0.560887038716,26.56,-5.21562310726e-06,6.37839866469e-05,5.24115267244e-05,-0.428879410028,0.255506575108,0.0164618920535,0.499823570251,-0.57909655571,-0.659239053726
1586422809.25,5.21248626709,16.6181907654,145.353485107,-2.73528122902,1.20224273205,9.40489196777,0,0,0,-1.61961216404,3.6013741007,-0.560875963959,26.47,2.07013668917e-06,9.92486341723e-05,5.64535024027e-05,-0.154911011457,0.183463335037,0.0154225183651,0.531978368759,-0.53058552742,-0.677185773849
1586422809.51,2.97545480728,19.0597667694,146.716690063,-3.0581946373,0.446761339903,9.1970205307,0,0,0,-1.61962629443,3.60136052762,-0.560861729576,26.39,1.71136006341e-05,9.5673991253e-05,4.96286519712e-05,-0.237029507756,0.118766948581,0.130609273911,0.555863857269,-0.51283454895,-0.678786754608
1586422809.77,-0.726017475128,19.5185718536,149.977676392,-3.18231296539,0.0348348245025,9.11360931396,0,0,0,-1.61965517406,3.60133293171,-0.560848291079,26.3,2.70934763183e-05,0.000111363863525,3.56144414393e-05,-0.282144665718,-0.0531770586967,0.238230004907,0.53294801712,-0.481021881104,-0.720778226852
1586422810.03,-0.696566581726,17.9381046295,153.233139038,-2.88985300064,-0.145311817527,9.07649803162,0,0,0,-1.6196983986,3.60131292794,-0.560852419468,26.23,4.08911127864e-05,0.000108046344923,8.6084841431e-06,0.0711238086224,-0.161400482059,0.173635646701,0.483434677124,-0.493569612503,-0.740811109543
1586422810.29,0.433539241552,14.5531578064,156.097946167,-2.15382432938,-0.178339034319,9.28178977966,0,0,0,-1.61976532804,3.60133923463,-0.560865448712,26.15,7.35451264156e-05,8.18624008773e-05,-1.40965237949e-05,-0.11541403085,-0.290434956551,0.224255368114,0.413949966431,-0.519594192505,-0.762458324432
1586422810.55,-8.3281621933,8.58129024506,160.809677124,-1.18550503254,-1.40051043034,9.74568462372,0,0,0,-1.61985724122,3.60133925663,-0.560817216761,26.08,0.000102887980261,8.23864686584e-05,1.04868460388e-06,-0.985649526119,-0.540534377098,0.292670339346,0.287482023239,-0.409888744354,-0.883209466934
1586422810.8,-19.1211833954,-0.0349204093218,166.042053223,0.287549167871,-3.12798285484,9.763463974,0,0,0,-1.6199730946,3.60133041515,-0.560660948569,26.0,0.00013269304379,9.15651471361e-05,5.30339244417e-05,-0.330547630787,-0.673831760883,0.117557600141,0.107159137726,-0.229577541351,-0.996921777725
1586422811.06,-16.8242893219,-7.99010133743,170.183898926,1.58373510838,-2.81853723526,9.60079860687,-1.4686,4.0491,0.534137063941,-1.62011812091,3.60133813413,-0.560526384872,25.94,0.000156101052559,9.03493976084e-05,8.49186901981e-05,0.333095401525,-0.541245698929,0.0948663726449,-0.0583369731903,-0.268537998199,-0.989999294281
1586422811.32,-12.1459960938,-14.5951242447,173.386764526,2.37870502472,-1.89967656136,9.31167793274,0,0,0,-1.62022019909,3.60124728259,-0.560471557695,25.86,0.000145975201805,0.000100909207396,8.78009833158e-05,0.364090412855,-0.420837581158,0.0572702623904,-0.190292596817,-0.355320453644,-0.94084072113
1586422811.58,-7.63680315018,-18.486579895,174.168548584,3.0646469593,-0.965844452381,9.3097486496,0,0,0,-1.62036555072,3.60106290646,-0.560374942833,25.8,0.000140868892145,0.000130132659231,9.69290840609e-05,0.260862976313,-0.137349262834,-0.0267773941159,-0.259128332138,-0.432844877243,-0.888453483582
1586422811.84,-5.10323047638,-18.7558765411,174.11378479,3.36011838913,-0.714914858341,9.32194328308,0,0,0,-1.62063726229,3.60094258821,-0.560294162776,25.73,0.000163051144864,0.000142238327352,0.000104073027205,0.0779347643256,0.0389313325286,-0.0233013220131,-0.263778686523,-0.474331140518,-0.867607831955
1586422812.1,-11.372751236,-18.4500427246,173.241546631,3.03289198875,-1.44961106777,8.9624710083,0,0,0,-1.62082176384,3.60057359857,-0.560294778678,25.66,0.000155061283926,0.000184381458651,8.61243585077e-05,-0.651199519634,0.0483858399093,-0.0950148254633,-0.254292726517,-0.38188791275,-0.918128728867
1586422812.35,-20.0313205719,-17.4115562439,171.051971436,2.71112370491,-2.93769979477,8.91213035583,0,0,0,-1.62090291036,3.60022932306,-0.560076665455,25.6,0.000130275215679,0.00021400006452,9.86665600228e-05,-0.605374455452,0.135509327054,-0.119286604226,-0.221734285355,-0.23001909256,-0.98128080368
1586422812.61,-27.1723499298,-16.1012763977,168.074554443,2.57182836533,-4.26800203323,8.78192329407,0,0,0,-1.62102927554,3.60010080747,-0.559600432493,25.54,0.000113695664488,0.000218167604574,0.000142128318955,-0.421559453011,0.180276095867,-0.173734292388,-0.167016983032,-0.0926218032837,-1.02178931236
1586422812.87,-29.0939006805,-15.1443223953,163.505645752,2.40462946892,-4.42871665955,8.27730560303,0,0,0,-1.6211395195,3.59979340799,-0.55935546411,25.48,9.59828709509e-05,0.000237871225494,0.000142048549866,0.0127999167889,0.240400001407,-0.292322576046,-0.111229658127,-0.0391232967377,-1.03693509102
1586422813.12,-24.148475647,-14.2654600143,157.604202271,2.42804169655,-3.91455769539,8.71828842163,0,0,0,-1.62138656076,3.59968673122,-0.559145983414,25.42,9.70591054282e-05,0.00023522666673,0.000146420494156,0.270558595657,0.203530147672,-0.317139863968,-0.0380346775055,-0.100732326508,-1.03077173233
1586422813.38,-20.2798194885,-14.1551074982,152.278915405,2.51602768898,-3.38708281517,9.0702753067,0,0,0,-1.62179665376,3.5997169906,-0.558864329986,25.35,0.000110092553483,0.000225219918582,0.000162608061242,0.0920339301229,0.09253013134,-0.313020735979,0.0146179199219,-0.149770021439,-1.02233839035
1586422813.64,-18.2826766968,-14.5975809097,147.919647217,2.53841853142,-3.12589812279,8.99970340729,-1.7454,3.9803,0.529182174665,-1.62214211839,3.59982676474,-0.558774916427,25.3,0.000118471074703,0.00020692905301,0.000161359033392,0.0766015127301,0.0676835179329,-0.265172600746,0.0498807430267,-0.165286779404,-1.01706147194
1586422813.9,-15.1214704514,-14.7158031464,144.164810181,2.29895734787,-2.42188954353,8.93835735321,0,0,0,-1.62217601433,3.59949893395,-0.558838819274,25.25,9.63927613983e-05,0.00021307712062,0.000135748956311,0.205028697848,0.0646787062287,-0.216679722071,0.0798823833466,-0.197786808014,-1.00474691391
1586422814.15,-12.7549886703,-14.4201087952,140.796127319,2.4517352581,-2.11433982849,9.15561294556,0,0,0,-1.62247509032,3.59936207718,-0.558885528163,25.2,9.72687514572e-05,0.000211240974949,0.000122622080129,-0.0142637686804,0.0699153244495,-0.205269515514,0.118752479553,-0.224586963654,-0.994418382645
1586422814.41,-13.4680566788,-14.2847528458,138.148880005,2.4556145668,-2.46130013466,9.27127456665,0,0,0,-1.62272413166,3.59968371202,-0.558816400746,25.14,0.000101179042861,0.000182894807518,0.000125167039639,-0.0905040875077,0.0289300512522,-0.118016093969,0.141241550446,-0.194571971893,-0.99714589119
1586422814.66,-13.462688446,-14.1468791962,137.084899902,2.30351948738,-2.33574485779,9.36579608917,0,0,0,-1.62285378351,3.5998163802,-0.558468422072,25.1,9.01689675464e-05,0.000168970924493,0.000137980373633,0.0297900307924,0.0228110700846,-0.0351592898369,0.150198221207,-0.184427976608,-1.00133562088
1586422814.94,-12.2087106705,-13.7722997665,136.773452759,2.33139944077,-1.95265877247,9.65621185303,0,0,0,-1.62341095145,3.59980743151,-0.557585189236,25.05,8.95812781319e-05,0.000176291012644,0.00017752404706,0.124574273825,0.052618060261,-0.00674910936505,0.1618309021,-0.204975366592,-0.99222612381
1586422815.19,-10.3180541992,-12.4311962128,136.692749023,2.20095324516,-1.52405309677,9.60138320923,0,0,0,-1.62423968708,3.5995253594,-0.556965826942,25.01,9.99068735836e-05,0.000198803036348,0.00019768515827,0.143753200769,0.103892974555,0.0428961664438,0.181957244873,-0.238673448563,-0.981262922287
1586422815.45,-5.35556316376,-10.8069372177,137.061141968,1.87386631966,-0.741971075535,9.58111572266,0,0,0,-1.62490123525,3.59910245869,-0.556710118143,24.96,0.000103864848576,0.00021734459696,0.000195691426478,0.548352777958,0.107873551548,0.00848044641316,0.203851938248,-0.321388721466,-0.944880962372
1586422815.71,5.63464784622,-9.11041736603,136.745635986,1.62316131592,0.909363508224,9.66250419617,0,0,0,-1.62546739618,3.59911063787,-0.556459358562,24.92,0.000112043558893,0.000212342301712,0.000197931277113,0.839565694332,0.112937897444,-0.0324809029698,0.232830762863,-0.489030361176,-0.853138208389
1586422815.96,19.302274704,-7.08280563354,136.450500488,1.18365561962,3.09436559677,9.33211612701,0,0,0,-1.62576973744,3.59921711096,-0.555835102128,24.88,0.000108884522671,0.000197458932203,0.000214615274949,1.04197824001,0.163340389729,-0.0691052153707,0.26759314537,-0.670101165771,-0.697694778442
1586422816.22,32.122127533,-3.61286497116,137.073257446,0.557699561119,5.07909059525,8.52811050415,-1.6662,3.8965,0.486570126892,-1.62600748775,3.59933264665,-0.554847348374,24.84,0.000103559784958,0.000179251045364,0.000243818531043,0.710910558701,0.274412840605,-0.0687571018934,0.316479921341,-0.802777051926,-0.499835968018
1586422816.48,40.8887519836,0.880200088024,138.771789551,-0.0224632937461,6.324426651,7.75606250763,0,0,0,-1.62676993636,3.59946413671,-0.553581119884,24.81,0.000118970355378,0.000167329475366,0.00028438917289,0.4795794487,0.333082586527,-0.0753355324268,0.369539499283,-0.86282992363,-0.334962129593
1586422816.74,47.9088821411,4.46644020081,141.355621338,-0.618837356567,6.98422050476,6.77334690094,0,0,0,-1.62716287561,3.59997123661,-0.552586737569,24.77,0.000136532750954,0.00013389915616,0.000310326034719,0.510282993317,0.255035758018,-0.0449635721743,0.401821136475,-0.894055604935,-0.194339752197
1586422816.99,56.3135299683,7.30716848373,142.76675415,-1.15233170986,8.18130779266,5.58043003082,0,0,0,-1.62804481414,3.59926365362,-0.551683952108,24.74,0.000148168641381,0.000143791184737,0.000332320791914,0.595877826214,0.138770073652,-0.139359235764,0.427510023117,-0.899569988251,-0.0405848026276
1586422817.25,63.2083320618,10.3816108704,142.780838013,-1.51717782021,8.69037437439,4.48396730423,0,0,0,-1.62941645467,3.59869513704,-0.550976799439,24.7,0.000178858757875,0.000152729878832,0.000348498581834,0.213367000222,0.087498344481,-0.147696256638,0.470212459564,-0.87467455864,0.0887479782104
1586422817.51,62.4496002197,11.6637639999,143.814300537,-1.84491217136,8.60123538971,4.46486473083,0,0,0,-1.63045193844,3.59790483718,-0.550603306638,24.66,0.000195927759356,0.000162507795311,0.000350830681193,-0.208485156298,0.0898668840528,0.0325577445328,0.477922201157,-0.872264146805,0.0894939899445
1586422817.77,59.3907356262,11.3351192474,145.149856567,-1.94914972782,8.19861698151,4.81485462189,0,0,0,-1.63055756084,3.59741506222,-0.55046478811,24.63,0.000193405472649,0.000152223143783,0.000340321660757,-0.229604974389,0.0484166741371,0.0730427131057,0.466803312302,-0.879755496979,0.042222738266
1586422818.03,56.2069816589,10.4966688156,146.011856079,-1.92860162258,7.84490251541,5.3136715889,0,0,0,-1.62996676637,3.59704300305,-0.550113883357,24.6,0.000175917933196,0.000130538754041,0.000333642685266,-0.185003206134,0.00462737120688,0.0831129327416,0.447415351868,-0.890167713165,-0.00857305526733
1586422818.28,55.6600418091,9.5716714859,146.669433594,-1.76041960716,7.83295917511,5.54460382462,0,0,0,-1.62941980295,3.59652191015,-0.549203900841,24.57,0.000159860813484,0.000110849407451,0.000344277438288,0.0532036647201,0.00839177612215,0.0765470713377,0.429201602936,-0.897550344467,-0.0222985744476
1586422818.54,57.3259773254,8.47959518433,147.39616394,-1.48050236702,8.12153339386,5.35428333282,0,0,0,-1.6295323042,3.59567632958,-0.548212408449,24.54,0.000155656778341,0.000104670649724,0.000358536173949,0.142935857177,-0.0177126415074,0.0970514640212,0.401128530502,-0.906402587891,0.00408530235291
1586422818.8,60.5399894714,6.73106336594,147.850067139,-1.08208727837,8.56840324402,4.94358682632,0,0,0,-1.63051301605,3.59439418502,-0.547192086616,24.51,0.000164234915058,0.000115027236555,0.000377422195692,0.247654974461,-0.0468265451491,0.129886567593,0.375217914581,-0.91716170311,0.0526320934296
1586422819.06,63.8600921631,4.59671545029,147.97984314,-0.785310566425,8.92852592468,4.36082601547,0,0,0,-1.63145308644,3.59278697621,-0.546817223732,24.48,0.000164366017738,0.000133590928591,0.000383840087007,0.24243734777,-0.0747748091817,0.127946436405,0.344452381134,-0.924371242523,0.101063251495
1586422819.32,66.7794647217,2.34925985336,147.508590698,-0.38614487648,9.19902610779,4.05767869949,0,0,0,-1.63274409792,3.59061497878,-0.545949639575,24.45,0.000166400210462,0.000157467305301,0.000408188093346,0.146878734231,-0.0993069410324,0.120981246233,0.313216209412,-0.927643299103,0.143958568573
1586422819.58,68.8355560303,0.632662534714,146.961395264,-0.0652901679277,9.20143318176,3.87272620201,0,0,0,-1.63383045186,3.58856274814,-0.544160514593,24.42,0.000171892976891,0.00016384333167,0.000450336721072,0.114558473229,-0.0567141994834,0.0867670550942,0.294002771378,-0.931378126144,0.172778129578
1586422819.84,69.7351760864,-1.09796893597,146.345565796,0.196598336101,9.14769744873,3.54391384125,-1.7623,3.8653,0.434048300568,-1.63456220491,3.58751253754,-0.542866697763,24.4,0.000179005784915,0.000152488785085,0.000467962055475,0.0148894265294,-0.0918913707137,0.0892194136977,0.275897741318,-0.933933496475,0.182830810547
1586422820.09,68.432762146,-2.67608642578,145.250747681,0.302314400673,9.07191562653,3.5493850708,0,0,0,-1.6341771358,3.58632422404,-0.542874729053,24.38,0.000158848747153,0.000146659424758,0.000460896124128,-0.259656190872,-0.11851195991,0.0641925558448,0.257109880447,-0.942307949066,0.15527009964
1586422820.35,63.5251655579,-4.33459043503,143.804244995,0.53537684679,8.62438297272,4.38546228409,0,0,0,-1.63307191008,3.58519531449,-0.542234426647,24.36,0.000132046012012,0.000129085649318,0.000463805002315,-0.329723447561,-0.125477522612,0.0747172683477,0.244222402573,-0.954963684082,0.0626196861267
1586422820.61,58.6855316162,-6.12439346313,142.877487183,0.862342119217,8.16850471497,5.07147741318,0,0,0,-1.63186206205,3.58434602766,-0.541438320895,24.33,0.000107939602265,0.000107155242121,0.0004637351735,-0.304579526186,-0.108051739633,0.0680750608444,0.226446628571,-0.965715885162,-0.0323605537415
1586422820.86,52.10496521,-7.42382669449,141.740097046,1.05987489223,7.88085746765,5.77908182144,0,0,0,-1.63196105153,3.58257689472,-0.542938003084,24.31,8.06331935757e-05,0.000133520479126,0.000437674278701,-0.543914735317,-0.119979843497,-0.00955538358539,0.219972848892,-0.957978963852,-0.153022766113
1586422821.12,44.8120040894,-8.24545478821,140.060974121,1.39930295944,6.973695755,6.74947786331,0,0,0,-1.63314763025,3.58154017819,-0.543470669869,24.29,7.95441618709e-05,0.000150423764159,0.000419062572988,-0.470344871283,-0.115717694163,-0.028845326975,0.216167926788,-0.925887823105,-0.287964820862
1586422821.37,38.1996459961,-9.59357643127,139.140029907,1.79690051079,5.96642923355,7.79265403748,0,0,0,-1.63507790511,3.58037931357,-0.541037893153,24.27,0.000100885543032,0.000148053735665,0.000443906380443,-0.470409959555,-0.0993088632822,0.0534503273666,0.205963850021,-0.885849714279,-0.406472444534
1586422821.63,31.0365772247,-11.3339605331,139.003265381,1.85263061523,4.99195194244,8.28006649017,0,0,0,-1.63553958088,3.57900328392,-0.540102997525,24.25,9.07496831277e-05,0.000152116956316,0.000448510330429,-0.541032493114,-0.111121445894,0.0584176555276,0.183472156525,-0.830825805664,-0.526372432709
1586422821.89,22.6802577972,-13.2635965347,138.725708008,2.22223186493,3.75975227356,8.97341251373,0,0,0,-1.63671490915,3.57703392252,-0.538326583139,24.23,8.6803865366e-05,0.000162324610782,0.000469818889559,-0.579933941364,-0.115354157984,0.0300517715514,0.147405385971,-0.742983579636,-0.65375828743
1586422822.15,16.1816539764,-14.0973186493,138.239028931,2.35927295685,2.66265153885,9.42320346832,0,0,0,-1.63770409998,3.57484828679,-0.535162868776,24.2,8.26101427152e-05,0.000163648035059,0.000507620805033,-0.350587338209,-0.0339403897524,-0.0393811874092,0.138032436371,-0.662164449692,-0.742901563644
1586422822.41,14.6466283798,-14.437833786,136.317321777,2.4470102787,2.27201271057,9.35989379883,-1.7101,3.8017,0.576749111713,-1.63830342871,3.57488839744,-0.532051502592,24.19,8.84673084253e-05,0.000142871649789,0.000524001393633,0.0641090869904,-0.0930026397109,-0.19420388341,0.152354955673,-0.629384994507,-0.771809577942
1586422822.66,17.6661949158,-16.5075588226,131.439620972,2.85538625717,2.74145507812,8.88935375214,0,0,0,-1.63918169532,3.57578242017,-0.530518923772,24.16,9.75013705111e-05,0.000127426777701,0.000513596009986,0.0359053127468,-0.334868431091,-0.270973354578,0.155394792557,-0.641775846481,-0.76290345192
1586422822.92,15.2478923798,-21.8235569,126.197715759,3.55744075775,2.43219614029,8.79025554657,0,0,0,-1.63984542507,3.57473694112,-0.52952462115,24.14,8.51340842787e-05,0.000132326461816,0.000513570858532,-0.579552829266,-0.500274181366,-0.15292878449,0.10680603981,-0.579869508743,-0.818763017654
1586422823.18,6.111951828,-27.1360034943,122.490867615,4.19089651108,1.38444626331,8.89102268219,0,0,0,-1.64202107937,3.56888242337,-0.529444539418,24.13,4.61372537336e-05,0.00019437149195,0.000541760233723,-0.547884464264,-0.21721829474,-0.191215336323,0.0339925289154,-0.414519786835,-0.928728818893
1586422823.44,5.72899961472,-26.3727378845,118.470504761,4.82127380371,1.12981116772,9.08586025238,0,0,0,-1.65025708164,3.56762107221,-0.525212336316,24.11,0.000109437370371,0.000228875835861,0.000587944618468,0.235205858946,0.221158519387,-0.301670521498,0.0650849342346,-0.364264249802,-0.95167517662
1586422823.69,11.1351938248,-20.7654724121,115.001358032,3.84254860878,1.41524899006,8.95843410492,0,0,0,-1.65253860504,3.57238210845,-0.521162349111,24.09,0.000159482911716,0.000179624524855,0.000581616127098,0.0708831846714,0.373872816563,-0.138010546565,0.180427789688,-0.426422119141,-0.904669046402
1586422823.95,4.73438215256,-17.1124782562,116.496742249,2.79160451889,0.459684789181,8.72862911224,0,0,0,-1.6494301041,3.57760633624,-0.523944545653,24.07,0.000146191433702,0.000136080526571,0.000495811756873,-0.476246505976,0.142526209354,0.197293639183,0.241305112839,-0.337064743042,-0.930705308914
1586422824.21,-0.801248729229,-16.6727848053,119.833221436,2.92910814285,-0.281780153513,9.26968193054,0,0,0,-1.65031990931,3.58052051236,-0.522567270677,24.05,0.000161963153459,0.000115145297504,0.000477537006689,-0.219600722194,-0.0196360088885,0.19873778522,0.228855371475,-0.274777412415,-0.960795640945
1586422824.47,-5.39059066772,-19.9986667633,122.054992676,3.49486875534,-0.541126072407,9.46872901917,0,0,0,-1.65660759912,3.57781988095,-0.519582667005,24.03,0.000181261023069,0.000160569893909,0.000517636891449,-0.223696395755,-0.326029062271,0.0811810269952,0.162770748138,-0.212799549103,-0.988894939423
1586422824.73,-5.8719959259,-23.2342128754,123.621139526,3.81546092033,-0.723405718803,9.1138343811,0,0,0,-1.65988153755,3.57536366303,-0.517802921027,24.02,0.000173342290095,0.000188519439096,0.00053766155293,0.00562574807554,-0.140961304307,0.0551411956549,0.0943334102631,-0.21396613121,-1.00551342964
1586422824.99,-8.23406219482,-23.719285965,123.476722717,3.96860790253,-1.16836643219,8.91521835327,-1.6949,3.662,0.588640845976,-1.66335027994,3.575268718,-0.517147180985,24.0,0.000179911249282,0.000205229498864,0.000535892038062,-0.288451582193,-0.0119280107319,-0.0724092498422,0.0814714431763,-0.172870874405,-1.0124194622
1586422825.25,-11.8430128098,-23.7182121277,122.298912048,4.08999633789,-1.36762011051,9.00912284851,0,0,0,-1.67216226955,3.5716813573,-0.515768840839,23.97,0.000199867699002,0.000272294361264,0.00056618984207,-0.325223594904,0.0377191379666,-0.0575304292142,0.0806891918182,-0.102405071259,-1.01954698563
1586422825.51,-13.8634653091,-23.1959915161,121.622993469,3.91842603683,-1.95463752747,9.11375808716,0,0,0,-1.67811232926,3.56896110991,-0.510991871162,23.96,0.000207280877202,0.000301514705163,0.000616547946482,-0.0784326344728,0.0578554458916,0.00874344259501,0.0986135005951,-0.0544657707214,-1.01905107498
1586422825.77,-11.6047840118,-22.0390834808,120.405441284,3.68935084343,-1.74839556217,9.12856769562,0,0,0,-1.68211725889,3.56766030938,-0.506900373167,23.94,0.000208189337551,0.000313063169359,0.00064745289463,0.132876485586,0.137111797929,-0.12434053421,0.130284070969,-0.0853049755096,-1.01830244064
1586422826.02,-8.40042114258,-20.7511291504,117.972465515,3.37215328217,-1.43932080269,8.99284076691,0,0,0,-1.68191221703,3.56847237038,-0.50560625093,23.93,0.00019316937021,0.0002989537035,0.000635056461263,0.119524307549,0.0915190279484,-0.128420099616,0.166308641434,-0.117497205734,-1.01081418991
1586422826.28,-6.07486200333,-19.9902477264,115.682846069,3.26292252541,-1.11389160156,8.96503639221,0,0,0,-1.68079935037,3.5703234739,-0.505700114183,23.92,0.000179955318597,0.000279147400997,0.00060538875324,0.0224849265069,0.0420736223459,-0.130899295211,0.193195343018,-0.141529321671,-1.00022554398
1586422826.54,-5.94505262375,-19.6708316803,114.171791077,3.37636208534,-0.881132483482,9.17397022247,0,0,0,-1.68480461234,3.57088095726,-0.504433192501,23.9,0.000190416383529,0.000290052580842,0.000602757643788,-0.0797163918614,0.0341473221779,-0.069949798286,0.205390691757,-0.133795499802,-0.997704267502
1586422826.81,-6.76725053787,-19.0985546112,113.557449341,3.35447311401,-0.980731010437,9.24434661865,0,0,0,-1.69047430445,3.57170494129,-0.502565724359,23.88,0.000211141646186,0.000306212097902,0.000607760968892,0.0183993950486,0.0489791892469,0.00065919017652,0.216824769974,-0.109393358231,-0.996289253235
1586422827.06,-3.68329644203,-18.4244441986,113.896156311,2.98348712921,-0.657998144627,9.21786785126,0,0,0,-1.69030320074,3.57175217518,-0.501319333879,23.87,0.000193914092888,0.000297483795598,0.00059692118166,0.255658745766,0.0364100635052,0.0311354231089,0.227246046066,-0.163143634796,-0.986140489578
1586422827.32,-1.82642352581,-17.7614803314,114.352523804,2.7479262352,-0.397173553705,9.29172801971,0,0,0,-1.68791271362,3.5703599799,-0.499445826241,23.86,0.000157967820542,0.000282979528575,0.000589567958647,0.0325443223119,-0.00901371333748,0.0164857152849,0.237018346786,-0.194714069366,-0.973219633102
1586422827.57,-1.61629259586,-19.3375797272,113.679733276,3.13953351974,-0.350157678127,9.5969953537,0,0,0,-1.68897522679,3.5685563178,-0.491063379947,23.84,0.000141771361793,0.000269905187607,0.000639485624771,-0.0155199337751,-0.145800799131,-0.0582724921405,0.217790603638,-0.19820690155,-0.981437921524
1586422827.83,-1.33235442638,-20.2505702972,113.791717529,3.45511507988,-0.263810187578,9.58074760437,0,0,0,-1.69310009872,3.56832963603,-0.481855859114,23.83,0.000150329166774,0.000262527072009,0.00069484611351,0.0141086056828,0.00817980710417,0.0461889468133,0.200194597244,-0.202365398407,-0.984088659286
1586422828.09,-2.55311322212,-19.4048137665,114.867652893,3.5538713932,-0.334851711988,9.36686038971,0,0,0,-1.7012884414,3.57126096849,-0.477645940022,23.81,0.000193716369449,0.000273903481264,0.000712448409088,-0.0756338238716,0.0630317181349,0.0774743035436,0.208059072495,-0.192192792892,-0.984988689423
1586422828.35,-3.3894739151,-18.4421443939,115.685455322,3.21817946434,-0.387593358755,9.07514572144,0,0,0,-1.70692012434,3.57243962113,-0.480317752037,23.8,0.000210555684732,0.00029805206672,0.000679801787611,-0.0374559313059,0.0547969825566,0.0429598689079,0.221313238144,-0.186148881912,-0.985759973526
1586422828.61,-4.06315326691,-18.1721134186,115.899116516,2.92474579811,-0.566420912743,9.16657924652,0,0,0,-1.70851246834,3.57033178088,-0.481140886004,23.79,0.000190203082432,0.000312107900108,0.000659597881964,-0.0472690835595,0.0227322783321,0.0184850730002,0.22372174263,-0.175172805786,-0.986241102219
1586422828.87,-5.8059129715,-17.376121521,116.389595032,3.01663589478,-0.71230840683,9.49074840546,0,0,0,-1.71735941079,3.56840911295,-0.47712265638,23.77,0.000202991262015,0.00034731072937,0.000685421505158,-0.262226223946,0.067081131041,0.0549012944102,0.234039545059,-0.151816606522,-0.986512899399
1586422829.12,-7.44957494736,-15.8336286545,116.248153687,2.62722611427,-1.18032026291,9.37344646454,0,0,0,-1.72022636009,3.56749557895,-0.474604276235,23.75,0.000195348136501,0.000353866546256,0.000687054364785,0.1199567765,0.111757420003,-0.0324029475451,0.259864091873,-0.119181394577,-0.989708185196
1586422829.39,-4.41185474396,-14.4778413773,115.737518311,2.54952025414,-0.730901062489,9.41017723083,-1.6966,3.5889,0.547019776058,-1.72372083714,3.57005299238,-0.474300864294,23.73,0.000209655037615,0.000353339188605,0.000670171783773,0.161336198449,0.0748859792948,-0.0222809631377,0.284055709839,-0.168610811234,-0.97479224205
1586422829.65,-2.71712684631,-13.9716520309,115.166618347,2.55731368065,-0.48156195879,9.52314758301,0,0,0,-1.72885031412,3.57401121053,-0.471107877594,23.73,0.000237806792172,0.00034871242139,0.000671593371578,0.0420553684235,-0.00863038282841,-0.0273637510836,0.298335790634,-0.19375371933,-0.959541320801
1586422829.91,-4.14237451553,-15.2692365646,115.175079346,2.71328020096,-0.589999258518,9.54670619965,0,0,0,-1.73613047084,3.5751545334,-0.466978658764,23.71,0.000257122507639,0.000362732270409,0.000687160009207,-0.149995133281,-0.143583118916,0.00758189847693,0.27908039093,-0.171165466309,-0.972706794739
1586422830.17,-4.7550702095,-17.7141666412,115.891876221,2.92657065392,-0.698461472988,9.46562004089,0,0,0,-1.74088061299,3.5729900952,-0.461520310938,23.69,0.000248043488184,0.000374260877044,0.000709648899521,0.0840841010213,-0.132925838232,0.0426424778998,0.232220888138,-0.160581350327,-0.989331483841
1586422830.42,-4.93453741074,-18.5059223175,116.894889832,2.98632597923,-0.76652520895,9.26305770874,0,0,0,-1.7428406278,3.57062462514,-0.459163057736,23.68,0.000228444425097,0.000379406300645,0.000708183071632,-0.0262405779213,-0.0160086899996,0.0658301785588,0.214000940323,-0.16860127449,-0.990343809128
1586422830.68,-3.99329447746,-18.227104187,117.645690918,3.00475001335,-0.632232666016,9.3870382309,0,0,0,-1.74611163885,3.5691120466,-0.454307887565,23.66,0.000218495243862,0.000381954727054,0.000721534121033,0.139466494322,0.0151073588058,0.0258425287902,0.21243262291,-0.192391633987,-0.985433578491
1586422830.94,-3.40927505493,-18.8223762512,117.543197632,3.10132455826,-0.535033524036,9.46908855438,0,0,0,-1.7502369058,3.56704289815,-0.446644436939,23.65,0.000208485262304,0.000384590408857,0.000751544087032,-0.0192854590714,-0.0654481425881,-0.0289898402989,0.205170631409,-0.199824810028,-0.983962774277
1586422831.19,-2.73026275635,-19.5722122192,117.672676086,3.29086589813,-0.385680735111,9.3514995575,0,0,0,-1.75579020862,3.56603540465,-0.441305823912,23.64,0.000208925060674,0.000392948188523,0.000769148772123,0.131153509021,-0.0336725264788,0.040634162724,0.190109729767,-0.214097976685,-0.983245134354
1586422831.45,-2.44486260414,-19.8455924988,119.002182007,3.51937103271,-0.291998833418,9.27295303345,0,0,0,-1.76535599965,3.56844035302,-0.438126760261,23.63,0.000237843584354,0.000408511938376,0.000776792947207,-0.0530876256526,-0.0242285449058,0.129650354385,0.177771806717,-0.229058265686,-0.981355667114
1586422831.71,-3.58529996872,-19.7490005493,121.15057373,3.3171172142,-0.5245423913,9.08111858368,0,0,0,-1.76944745865,3.56835493946,-0.439163948867,23.61,0.000237941840583,0.000416655562853,0.000755312046593,0.0430708862841,0.0562129616737,0.132627993822,0.166714191437,-0.234628200531,-0.983846187592
1586422831.97,-2.97804522514,-18.6890411377,122.639190674,3.15634274483,-0.54029405117,9.16782093048,0,0,0,-1.77122213259,3.57008020768,-0.438659869508,23.6,0.000239741757015,0.000407670299353,0.000737078445932,0.0330423936248,0.0486975498497,0.0778296887875,0.17674946785,-0.252856016159,-0.979195833206
1586422832.23,-5.69879341125,-18.1217460632,123.455917358,3.20081853867,-0.819073438644,9.44521617889,-1.5839,3.6706,0.549992709624,-1.77571687734,3.57399606425,-0.435206306921,23.59,0.00025902491343,0.000403903268901,0.000742043649921,-0.280583351851,0.0488167703152,0.0356005616486,0.179620981216,-0.21858549118,-0.985720872879
1586422832.48,-7.75719356537,-17.6032657623,123.88621521,3.10798883438,-1.15536725521,9.34884166718,0,0,0,-1.78530469373,3.57559372567,-0.431137344436,23.57,0.000280426606798,0.000420173347175,0.000754249934914,0.0760605633259,-0.00835731904954,0.0499403178692,0.185838699341,-0.181130409241,-0.994370698929
1586422832.74,-5.69913721085,-18.0559310913,125.133605957,3.13207387924,-0.827431559563,9.33606815338,0,0,0,-1.79386301347,3.57614495697,-0.427658179658,23.57,0.000294247726994,0.000435290638766,0.000762100178101,0.157140016556,-0.0455938391387,0.080992102623,0.171277046204,-0.225425243378,-0.982617855072
1586422833.0,-3.63697075844,-18.5983047485,125.881614685,3.05477833748,-0.460591316223,9.23046302795,0,0,0,-1.79946870155,3.57231992048,-0.427125823997,23.55,0.000282472496735,0.000455224348602,0.000753895600867,0.115953572094,-0.023191049695,0.0158278290182,0.155029535294,-0.271837234497,-0.974225759506
1586422833.26,-4.26123094559,-18.6514530182,125.482566833,2.96872758865,-0.692246973515,9.21891880035,0,0,0,-1.80004987267,3.56831836229,-0.425023260706,23.54,0.000256003744017,0.000455044790484,0.000745378937469,-0.138776406646,0.00942181795835,-0.0621810667217,0.158530473709,-0.260897397995,-0.976891279221
1586422833.51,-4.5951795578,-18.2840747833,124.248847961,2.85417580605,-0.940488755703,9.3091802597,0,0,0,-1.79494112933,3.56608667416,-0.418400241318,23.54,0.000220980612993,0.000424960561975,0.000748459004992,0.0144569221884,0.0561984293163,-0.0543322525918,0.170387744904,-0.242578744888,-0.980447292328
1586422833.77,-5.23766374588,-17.2604198456,124.483314514,2.93703341484,-0.981554090977,9.42416381836,0,0,0,-1.7969905697,3.56888375004,-0.410678870443,23.52,0.000224953892751,0.000405217103587,0.000762649224963,-0.0963732600212,0.0559499487281,0.086104683578,0.185916423798,-0.232184886932,-0.984474420547
1586422834.03,-6.64252376556,-17.0904388428,126.478713989,3.1294491291,-0.876349925995,9.61652755737,0,0,0,-1.81464160028,3.57060137276,-0.400459339043,23.52,0.000263410647622,0.000437782301719,0.000809675215542,0.012208708562,-0.00408850610256,0.144175261259,0.17515873909,-0.222819566727,-0.984730243683
1586422834.29,-6.37867975235,-16.4257068634,128.088470459,2.78930997849,-0.818684160709,9.45111370087,0,0,0,-1.82669614596,3.56621767161,-0.395887282638,23.51,0.000265469524637,0.000473484513882,0.000824771611114,0.0606818236411,0.0135140512139,0.0902606323361,0.17692732811,-0.244004249573,-0.978076219559
1586422834.55,-8.52204799652,-16.9715423584,129.966644287,3.04723906517,-1.29712724686,9.3795375824,0,0,0,-1.83882889663,3.56920072181,-0.39042762505,23.5,0.000294351893256,0.000488152468673,0.000840001759823,-0.360233604908,-0.132564947009,0.18485480547,0.156032085419,-0.221350669861,-0.9896235466
1586422834.81,-14.0769014359,-19.2961730957,134.084197998,3.17616057396,-1.99073028564,9.08961486816,-1.4842,3.6917,0.52819119681,-1.83464941096,3.56694959394,-0.390713571654,23.49,0.000269396940401,0.000483982702329,0.000821566561052,-0.0814423337579,-0.217607676983,0.227724298835,0.088987827301,-0.152688741684,-1.01608085632
1586422835.06,-12.2678022385,-20.2173137665,137.99949646,3.70339608192,-1.86186301708,9.17583656311,0,0,0,-1.85065821942,3.57310763505,-0.383199073252,23.48,0.00031757515592,0.000498279705669,0.000848879435874,0.382551312447,0.0096919098869,0.221887201071,0.0392458438873,-0.204775571823,-1.00520634651
1586422835.32,-5.62743186951,-18.5859870911,139.588363647,3.29144906998,-0.758425951004,9.06494808197,0,0,0,-1.86177475819,3.57433199533,-0.388258536057,23.47,0.000342819838435,0.000521756940484,0.000818815503285,0.468063622713,0.0712825655937,0.03580808267,0.0548114776611,-0.330475568771,-0.961289405823
1586422835.58,-0.429425835609,-19.3364772797,137.731262207,3.06232500076,-0.0980373322964,8.9534330368,0,0,0,-1.85853296617,3.56934229605,-0.394359339511,23.47,0.000313552355902,0.000517322992623,0.000770713930802,0.304842352867,-0.1072005108,-0.219156712294,0.0571432113647,-0.406152486801,-0.930911302567
1586422835.84,4.9780664444,-21.0939369202,134.062591553,3.14110517502,0.253574371338,8.96629238129,0,0,0,-1.83659024714,3.56928965443,-0.388756404921,23.46,0.000252681405778,0.000433286488588,0.000746029644928,0.168476492167,-0.151574656367,-0.178289830685,0.0591187477112,-0.472427606583,-0.895004034042
1586422836.1,3.99782848358,-22.5143299103,132.600296021,3.54677438736,0.297991454601,9.32207107544,0,0,0,-1.82926610194,3.56902881968,-0.37012899104,23.45,0.000219685416985,0.00038122616303,0.000789685267216,-0.279515326023,-0.0510703958571,-0.0187452919781,0.0458331108093,-0.452336072922,-0.907471656799
1586422836.36,-0.535449206829,-21.7507553101,133.299453735,3.83251452446,-0.079141408205,9.60787582397,0,0,0,-1.84458231171,3.57313365767,-0.348632932702,23.44,0.000250587307249,0.000382068108984,0.000867611790982,-0.252928316593,0.124831743538,0.0816250666976,0.0521810054779,-0.380353689194,-0.94261431694
1586422836.62,-2.34503388405,-19.4232959747,134.225616455,3.44137859344,-0.253360509872,9.5388174057,0,0,0,-1.86128702845,3.57458999554,-0.33531606631,23.43,0.000278656864232,0.000401692202806,0.000913783953781,0.076703928411,0.162412062287,0.0537427216768,0.0816764831543,-0.355625629425,-0.9490442276
1586422836.87,-0.218162119389,-17.3996219635,135.366622925,3.09460735321,-0.102298565209,9.36742782593,0,0,0,-1.86802718945,3.58091772783,-0.330599615274,23.42,0.000304158332627,0.000390933351777,0.000914026107069,0.137480169535,0.105159185827,0.092705540359,0.102789878845,-0.394983530045,-0.927006959915
1586422837.13,0.0728772804141,-15.920255661,136.885665894,2.73041439056,0.0838254541159,9.3129825592,0,0,0,-1.87465640938,3.58011242362,-0.33184707247,23.41,0.000310199885142,0.000402221445966,0.000893933187173,-0.0127334147692,0.0822329968214,0.0918837413192,0.116664171219,-0.41284942627,-0.920050144196
1586422837.39,-0.485827684402,-15.8763227463,137.828399658,2.75148463249,0.0106106726453,9.48857021332,-1.3975,3.6853,0.538100975362,-1.8547154523,3.58555945808,-0.337953816603,23.4,0.000290067620154,0.000354297419438,0.00084395354862,0.0391548536718,-0.04912019521,0.035162832588,0.109009027481,-0.412484169006,-0.921897411346
1586422837.65,2.05234622955,-16.8763771057,137.691772461,2.99300765991,0.231151610613,9.48919296265,0,0,0,-1.86090334374,3.59206155423,-0.328835273258,23.4,0.000312335023158,0.000338038650108,0.000859821351075,0.187775701284,-0.0478126220405,-0.0400740727782,0.0967366695404,-0.45193696022,-0.904001951218
1586422837.92,4.04906511307,-17.7029914856,136.101104736,2.907964468,0.454526156187,9.24833869934,0,0,0,-1.85609806989,3.59457917837,-0.324302340289,23.39,0.000300714863602,0.000306494545638,0.000847591906483,0.0858390778303,-0.0867653861642,-0.123495623469,0.0924813747406,-0.473429203033,-0.892522096634
1586422838.17,6.90496921539,-18.7431049347,133.612335205,3.14979100227,0.907499074936,9.2044916153,0,0,0,-1.85340182454,3.59960385526,-0.318081609075,23.38,0.000300341363104,0.000274115582346,0.000844020686564,0.128334984183,-0.075412556529,-0.158128574491,0.0935626029968,-0.501847982407,-0.876495361328
1586422838.43,4.70320701599,-18.293132782,132.24130249,3.18077993393,0.656651675701,9.33202934265,0,0,0,-1.85766813556,3.60570121123,-0.310765548529,23.38,0.00031609135613,0.000257355692121,0.00085094480732,-0.38294300437,0.0789942741394,-0.0549871809781,0.107998847961,-0.463585615158,-0.897102832794
1586422838.69,-1.66955852509,-16.6865253448,131.440811157,2.93614196777,-0.360964417458,9.42649650574,0,0,0,-1.86289529847,3.61274562624,-0.304191922342,23.37,0.000334674635412,0.000243656577471,0.000855451091909,-0.48795285821,0.113204419613,-0.0124696781859,0.142387390137,-0.357332229614,-0.946993112564
1586422838.94,-8.9394235611,-15.3730535507,131.19732666,2.64168810844,-1.21457374096,9.43938827515,0,0,0,-1.87861738537,3.6078619543,-0.298845419588,23.36,0.000340609935402,0.000283515315769,0.000869814119006,-0.398883491755,0.0954850167036,-0.0209722798318,0.166243553162,-0.230701446533,-0.987723112106
1586422839.2,-10.0238695145,-14.338517189,130.190856934,2.36547279358,-1.35307049751,9.24343204498,0,0,0,-1.89043681135,3.5982628498,-0.302607086693,23.36,0.000329936541576,0.000330802881955,0.000850832215296,0.249633461237,0.0114625366405,-0.12925606966,0.187705993652,-0.197317361832,-0.989919900894
1586422839.45,1.74383151531,-17.4930000305,126.515472412,2.84903216362,0.022773982957,9.41214561462,0,0,0,-1.88359572523,3.60248703129,-0.291021488686,23.35,0.000314174903914,0.000289674235766,0.000859565051913,0.970645606518,-0.332487106323,-0.275961488485,0.161394119263,-0.364927768707,-0.936581134796
1586422839.72,15.196264267,-21.3730945587,123.106063843,3.4554810524,2.17647767067,9.17587471008,0,0,0,-1.88214887408,3.60297833823,-0.265639463621,23.33,0.000295076445573,0.000255282393799,0.00091620962449,0.625397503376,-0.205384194851,-0.0966334491968,0.119973182678,-0.550440788269,-0.835542201996
1586422839.97,20.298078537,-21.7010478973,122.557556152,3.62097358704,3.1205034256,8.82569217682,0,0,0,-1.88933973703,3.60209332587,-0.246953420104,23.34,0.000293812054791,0.000248566513311,0.000959846139859,0.156294777989,0.0966659113765,0.0208558551967,0.121254205704,-0.624572753906,-0.779759407043
1586422840.23,19.0519561768,-19.481595993,123.88899231,3.2759540081,2.96573591232,8.83139038086,0,0,0,-1.89367672433,3.60242349404,-0.236400613624,23.33,0.000294300135384,0.000239891921346,0.000973511144951,-0.241075187922,0.225730165839,0.000920706021134,0.15038561821,-0.618144989014,-0.781796216965
1586422840.48,11.469162941,-15.6204566956,124.44203186,2.80387616158,1.85439908504,9.26593875885,0,0,0,-1.90245039998,3.60923906755,-0.230936693105,23.33,0.000320288572754,0.000235677787947,0.00097384801376,-0.626527190208,0.241881519556,-0.0538849420846,0.210432291031,-0.514648675919,-0.84542798996
1586422840.74,3.10435652733,-12.607708931,124.533638,2.42822694778,0.558696806431,9.69349479675,-1.4619,3.7449,0.542064886782,-1.87862146459,3.630582952,-0.24764088006,23.32,0.000339776429145,0.000177407784754,0.000907419567356,-0.484529644251,0.169339746237,0.00394676299766,0.257343053818,-0.383957147598,-0.907143354416
1586422841.0,-0.865505993366,-11.9623060226,124.493507385,2.05893826485,0.0402802489698,9.63229370117,0,0,0,-1.89069851736,3.62717486447,-0.242782175814,23.32,0.000343240203062,0.00020526337007,0.000912297873879,-0.06308183074,-0.0445846505463,-0.000397861062083,0.269642114639,-0.315629482269,-0.933851003647
1586422841.26,4.09231042862,-14.1206579208,123.423103333,2.00521230698,1.09161353111,9.23540401459,0,0,0,-1.89504050109,3.60082709405,-0.252420176096,23.31,0.000283156153448,0.000268055321034,0.000872867807798,0.572494208813,-0.276068359613,-0.227901399136,0.245971918106,-0.377881526947,-0.908523321152
1586422841.52,16.0629291534,-21.1098709106,114.753067017,3.75158333778,2.32999014854,8.86685752869,0,0,0,-1.89990381901,3.61522113289,-0.242172751649,23.3,0.000316706233669,0.000236864338483,0.000883243419696,0.881745815277,-0.562683165073,-0.461413234472,0.180598497391,-0.500955581665,-0.864392757416
1586422841.78,31.602186203,-25.9636249542,107.309104919,4.43597126007,4.17074012756,7.74420785904,0,0,0,-1.89501127358,3.63286720732,-0.219832431414,23.3,0.000338769003617,0.000167627089149,0.000918315644256,0.602439343929,-0.439029127359,-0.183997005224,0.121507883072,-0.667488336563,-0.744421482086
1586422842.03,37.8143959045,-29.671169281,102.837257385,4.61897325516,4.9028506279,7.03348875046,0,0,0,-1.88432189504,3.63001700957,-0.193293851106,23.29,0.00030213770883,0.000118227054982,0.000964099088992,0.0161865763366,-0.223562166095,0.034032586962,0.0706210136414,-0.723099946976,-0.69488286972
1586422842.29,34.4035720825,-30.1028881073,104.22467041,4.92118549347,4.97763729095,7.38179397583,0,0,0,-1.90322193803,3.62101412404,-0.171199210179,23.28,0.000301653916359,0.000146094254068,0.00102262078461,-0.141621381044,0.161333948374,0.000713952060323,0.0570466518402,-0.68955373764,-0.728902339935
1586422842.56,33.5838317871,-27.6414756775,105.914741516,4.63103675842,4.88462018967,7.31492137909,0,0,0,-1.91554573377,3.6199104909,-0.162889542399,23.28,0.000313668005015,0.00015765604322,0.00103377146428,0.13317784667,0.116749323905,-0.0450942777097,0.0964674949646,-0.688608169556,-0.72792673111
1586422842.81,32.285282135,-27.6491565704,105.238815308,4.63095283508,4.64726257324,7.42250156403,0,0,0,-1.92482171633,3.62121026241,-0.15333290557,23.27,0.000325632735726,0.000158149141175,0.00104509273265,-0.428465783596,-0.125742837787,0.00594799034297,0.0979106426239,-0.670854091644,-0.741138696671
1586422843.07,30.384223938,-30.0007247925,103.496932983,5.02081012726,4.44299602509,7.43123817444,0,0,0,-1.94232338639,3.6201337823,-0.144750446135,23.27,0.000343269401605,0.000180455653834,0.00106064171614,0.179897144437,-0.225347369909,-0.0373657941818,0.0642018318176,-0.631308555603,-0.787810564041
1586422843.32,36.5918960571,-32.2825088501,100.722885132,5.41627693176,4.84484672546,6.722676754,-1.4699,3.3833,0.564857377451,-1.89730155958,3.60431107734,-0.179888871034,23.26,0.000280041965334,0.000142642394484,0.000961646313212,0.256472349167,-0.21372333169,-0.0817876681685,0.0262959003448,-0.694776535034,-0.730220794678
1586422843.58,39.4378662109,-32.3471565247,96.6103668213,5.28340244293,4.85584497452,6.55198764801,0,0,0,-1.8893717611,3.61386962351,-0.160497179893,23.26,0.000285396909102,8.28098259648e-05,0.000983314283376,-0.120064295828,-0.123329505324,-0.223360672593,0.0321688652039,-0.702303409576,-0.722344875336
1586422843.84,35.9611854553,-30.871181488,95.1051712036,5.16194534302,4.65402841568,7.02259683609,0,0,0,-1.88944153704,3.62385908459,-0.139533430676,23.25,0.000304430935561,3.98626316829e-05,0.00101328979324,-0.401509910822,0.143449664116,-0.0545707009733,0.0638406276703,-0.649655818939,-0.776231050491
1586422844.1,26.3516616821,-28.0098628998,97.5638809204,4.68391370773,3.83575081825,7.82755184174,0,0,0,-1.89688609893,3.6260223003,-0.129469973984,23.24,0.000315519597642,3.82408519166e-05,0.00102252480729,-0.638616681099,0.296633809805,0.0670253783464,0.105622291565,-0.528543710709,-0.862406730652
1586422844.36,19.6480293274,-24.8415546417,99.9046401978,3.88490343094,2.96100258827,7.70174884796,0,0,0,-1.88035642356,3.621462348,-0.156376181903,23.24,0.000280276448029,3.36130607067e-05,0.000920304722358,-0.0981845110655,0.184187874198,0.026542885229,0.155591011047,-0.436899423599,-0.906952857971
1586422844.62,19.5705337524,-24.2818870544,100.024299622,4.33208847046,2.98669219017,8.73435688019,0,0,0,-1.89830461598,3.63262134505,-0.133880412428,23.23,0.000324519076528,3.16959240001e-05,0.00096575752407,0.256663113832,0.0146182319149,-0.0955980569124,0.168278455734,-0.431973695755,-0.902211427689
1586422844.87,23.4018497467,-23.5165500641,98.0522689819,3.98800492287,3.51801991463,8.36303043365,0,0,0,-1.90386666388,3.63611253407,-0.120285330677,23.23,0.000335366082928,2.32384427367e-05,0.000981264846481,0.063593506813,-0.107441864908,-0.15118907392,0.186515331268,-0.478421211243,-0.877489089966
1586422845.14,22.4978961945,-23.7498245239,95.4947280884,3.61382174492,3.54192709923,8.2762670517,0,0,0,-1.90231973176,3.61695529154,-0.115810286782,23.22,0.000283986791341,3.94125321633e-05,0.00097778195832,-0.0985674783587,-0.0898473188281,-0.188922911882,0.188377380371,-0.439598083496,-0.895089626312
1586422845.39,24.3809261322,-24.181810379,92.6654052734,3.95546030998,3.71001410484,8.5517873764,0,0,0,-1.91295844223,3.60885756199,-0.0872507310255,23.21,0.000273968202791,4.16942012683e-05,0.00103789064967,0.169089645147,-0.0457264520228,-0.113750271499,0.185609579086,-0.441114425659,-0.897923469543
1586422845.65,25.776594162,-22.3554153442,92.0617446899,3.8393061161,4.06700563431,8.23087501526,0,0,0,-1.92684894947,3.60908933727,-0.0787285111088,23.21,0.000289939518435,5.9593400003e-05,0.00104647547053,-0.0353753641248,0.155600011349,-0.0925827994943,0.219161510468,-0.460550546646,-0.874450922012
1586422845.9,23.5285816193,-21.048368454,91.1409301758,3.43840909004,3.70226168633,8.23324966431,-1.4078,3.3916,0.573776178148,-1.85914839091,3.57963432452,-0.143479513782,23.2,0.000184189364105,3.41485857711e-05,0.000895245541847,-0.204715549946,-0.00496506830677,-0.0869658067822,0.247444629669,-0.414077043533,-0.892495632172
1586422846.16,23.0110321045,-21.3357257843,88.9777374268,3.52167105675,3.50809645653,8.25679206848,0,0,0,-1.85542787398,3.57913621539,-0.14350907359,23.2,0.000177472410721,2.5148421112e-05,0.000873066993802,0.0135021312162,-0.110528260469,-0.148145154119,0.241498470306,-0.382665395737,-0.908086299896
1586422846.41,25.4716243744,-21.9246921539,85.8284454346,3.76903820038,3.85504579544,8.32572937012,0,0,0,-1.86049478446,3.58283792433,-0.130329632182,23.19,0.000192343606995,1.64535888822e-05,0.000887922020629,0.0934099927545,-0.0923991203308,-0.168614879251,0.234190702438,-0.392288208008,-0.910488605499
1586422846.67,26.2497520447,-21.3023509979,83.591468811,3.89601802826,4.01431179047,8.32557868958,0,0,0,-1.87288102961,3.5962688801,-0.115953968743,23.19,0.000239492577426,1.1632397754e-05,0.000905290832607,0.0110635552555,0.0209121089429,-0.152108117938,0.249096155167,-0.385766744614,-0.911218881607
1586422846.93,24.9917144775,-20.1521282196,82.7869720459,3.74324846268,3.8364508152,8.3414182663,0,0,0,-1.8821098372,3.61376944072,-0.107358042723,23.18,0.000291514584771,3.05303693709e-06,0.000903594134208,-0.184218987823,0.0580368675292,-0.0315483734012,0.265033245087,-0.354854106903,-0.920188188553
1586422847.18,22.1496334076,-19.7810840607,82.7220611572,3.18303632736,3.4503736496,8.55495452881,0,0,0,-1.8798503047,3.60707497751,-0.0996399957835,23.18,0.000271607157054,-1.17218967881e-06,0.0009038071164,-0.115067146719,0.0073378905654,-0.0417143106461,0.275854825974,-0.30592751503,-0.935897827148
1586422847.44,21.8867816925,-20.1710166931,82.0917892456,3.26584768295,3.44024038315,8.74297618866,0,0,0,-1.88378936293,3.59814242107,-0.0820177994943,23.17,0.000254292976516,-1.32138022386e-07,0.000931798636935,-0.0734657049179,-0.0763215199113,0.0193340703845,0.267827033997,-0.296623706818,-0.946036338806
1586422847.7,21.7818965912,-20.7364082336,82.0035400391,3.1835873127,3.71705961227,8.53285980225,0,0,0,-1.89469297204,3.5755504422,-0.0809999223624,23.17,0.000211358125536,4.50777900556e-05,0.000933226776637,0.0893911421299,-0.0104609886184,-0.0354014337063,0.256980895996,-0.291687726974,-0.94629907608
1586422847.96,22.0689182281,-21.7327804565,80.7442626953,3.66804051399,3.51518011093,8.22851276398,0,0,0,-1.89878208109,3.57689474796,-0.0874810153765,23.16,0.000216321535464,5.80511358385e-05,0.000901115051067,0.00318717211485,-0.158153101802,-0.0615742169321,0.243923425674,-0.287718057632,-0.952698230743
1586422848.22,27.2046585083,-23.1476345062,77.3645401001,3.69589734077,3.96327114105,7.94440746307,0,0,0,-1.88846577487,3.5712982443,-0.0822089587352,23.16,0.000192886778275,3.48591117143e-05,0.000889312390448,0.331454068422,-0.158995524049,-0.216622054577,0.210059642792,-0.339435815811,-0.940877914429
1586422848.47,30.7949199677,-24.1128559113,73.1852874756,4.25689458847,4.2470035553,8.10443019867,0,0,0,-1.88914224908,3.5841761669,-0.0436636085726,23.16,0.000229599206812,-1.50443137548e-05,0.000949082755094,-0.166652813554,-0.248402088881,-0.11972565949,0.190416812897,-0.364073038101,-0.93309879303
1586422848.73,28.0530109406,-24.5921020508,71.500793457,4.16014099121,4.28087472916,8.37919902802,0,0,0,-1.90939299393,3.57789398576,-0.00801348766967,23.15,0.000240265204717,-3.03949122392e-06,0.00102294924906,-0.246010035276,0.0737643092871,-0.0179346706718,0.174129724503,-0.302173376083,-0.961625576019
1586422848.99,24.0405864716,-22.4505195618,73.5889587402,3.92500162125,3.9270157814,8.45753479004,0,0,0,-1.93277152321,3.57901526043,0.00672119367653,23.15,0.000266002507229,3.06427745522e-05,0.00104830209379,-0.155976444483,0.212949767709,0.0528620667756,0.21560382843,-0.253036022186,-0.971602201462
1586422849.24,20.6651515961,-20.7361412048,75.346321106,3.58302879333,3.28267168999,8.43771839142,0,0,0,-1.93750042938,3.58535699387,0.0062824547687,23.15,0.000282150575088,3.69223185972e-05,0.0010258017188,-0.23573794961,0.117582686245,0.0638550370932,0.248199224472,-0.210166454315,-0.977382898331
1586422849.5,17.326587677,-19.8748703003,76.08177948,3.25851368904,2.69776368141,8.75754261017,0,0,0,-1.93487009186,3.58244320829,0.0125241358583,23.14,0.000270564971915,2.95311058277e-05,0.00101781520475,-0.0723868757486,0.107594050467,-0.0202473290265,0.266153335571,-0.160511732101,-0.985175848007
1586422849.76,14.867600441,-18.6580047607,76.8957977295,2.98442482948,2.52302074432,9.07637786865,0,0,0,-1.94396580794,3.56963215724,0.0228376599218,23.14,0.000246846757893,5.01847519925e-05,0.00103112332155,-0.141786426306,0.083905659616,0.0225460156798,0.288754463196,-0.124978065491,-0.985131025314
1586422850.02,15.9776973724,-16.4133777618,76.9601516724,2.86381435394,2.62064313889,8.99896240234,0,0,0,-1.94925494826,3.57485099973,0.0286098562061,23.13,0.000260506706177,5.44083281928e-05,0.00102316330791,0.158979609609,0.189439073205,-0.0391915589571,0.327390670776,-0.136289596558,-0.968710184097
1586422850.27,16.7949848175,-13.8669557571,77.4778442383,2.57954263687,2.84669065475,8.95195865631,0,0,0,-1.95816126566,3.58884133304,0.0267633517132,23.13,0.000294947666074,6.80883325668e-05,0.000997215247853,0.0131862265989,0.147850632668,-0.0137116778642,0.374106645584,-0.154078722,-0.950990915298
1586422850.54,18.0271472931,-11.9767398834,77.3295593262,2.2008895874,2.87534713745,8.90639686584,-1.439,3.3526,0.559902488175,-1.86407154814,3.56878941788,-0.0761741864518,23.12,0.000214515086011,1.28773626539e-05,0.000811351205693,0.0941617563367,0.0913152620196,-0.0765118896961,0.407198667526,-0.169027328491,-0.932499885559
1586422850.79,17.7704334259,-11.3684997559,75.9321517944,1.95706880093,2.71242570877,9.03156661987,0,0,0,-1.85211165706,3.57448393983,-0.0714115446196,23.12,0.000218147587623,-1.77106161307e-05,0.000793677113201,-0.145171612501,-0.0677839145064,-0.113663844764,0.413064479828,-0.149340629578,-0.933438777924
1586422851.05,13.6166906357,-12.2553434372,74.9532165527,2.45784330368,2.05265450478,9.25184440613,0,0,0,-1.84833023515,3.59835512895,-0.0609123543637,23.12,0.000270768848096,-4.65088618665e-05,0.000783948282155,-0.595199763775,-0.309935033321,0.0762268528342,0.399780750275,-0.0743446350098,-0.951926469803
1586422851.31,7.30304431915,-20.356924057,75.9995880127,3.23754024506,1.59780025482,9.75295543671,0,0,0,-1.88197413829,3.57503377086,-0.0282471787131,23.12,0.000244588055687,1.23727021516e-05,0.000869497650113,0.0377243570983,-0.36084073782,0.108562663198,0.267035245895,0.0208170413971,-1.00761842728
1586422851.57,8.87052154541,-22.2631320953,77.2164916992,3.72703742981,1.77066159248,9.27360343933,0,0,0,-1.91068442547,3.56677947801,-0.0110159133331,23.11,0.000244833419772,6.34551309392e-05,0.000910293349111,0.214828789234,-0.0608813129365,0.0982614308596,0.227383136749,-0.0188753604889,-1.01417040825
1586422851.83,12.1826000214,-22.4878101349,78.0238113403,3.48632931709,2.131275177,8.6442861557,0,0,0,-1.91674616771,3.55209232368,-0.0224092610184,23.11,0.000206875707969,9.44977617853e-05,0.000879914908749,0.347559183836,0.0693658739328,-0.0537380874157,0.222719430923,-0.0879697799683,-1.00883412361
1586422852.08,17.9498233795,-21.7772884369,76.7286148071,3.72322273254,2.51326489449,8.41055107117,0,0,0,-1.90009798991,3.56402780722,-0.0233090550837,23.11,0.000219319056101,5.32023322808e-05,0.000843928299634,0.295223236084,-0.0424556694925,-0.0933267623186,0.236361980438,-0.172407865524,-0.989795446396
1586422852.34,20.9121055603,-22.0318202972,74.4061660767,3.43432950974,2.84405112267,8.3105840683,0,0,0,-1.87279101593,3.55703104427,-0.0205688767035,23.11,0.000184951658202,-2.94745802155e-06,0.000818294371265,0.0141108427197,-0.0288233216852,-0.14833176136,0.227486133575,-0.205827951431,-0.986181735992
1586422852.6,21.8341350555,-21.6448001862,72.4052352905,3.69847559929,3.02444911003,8.54765224457,0,0,0,-1.85778308335,3.56397498428,0.000208522762309,23.1,0.000196727801379,-5.52332453831e-05,0.000829677952618,0.0220255963504,-0.0195298362523,-0.0622801557183,0.226483345032,-0.201376676559,-0.981779575348
1586422852.85,19.7918167114,-21.3734264374,72.8970947266,3.74677705765,3.2082259655,8.72745227814,0,0,0,-1.87225228399,3.56952226913,0.014991783678,23.1,0.000220839276638,-3.94883871323e-05,0.000847336445389,-0.266705185175,0.0680906996131,0.0464944317937,0.238036155701,-0.170833587646,-0.988093614578
1586422853.12,15.4976615906,-20.5089187622,73.6043243408,3.5635061264,2.37622094154,8.88874149323,-1.5299,3.4782,0.589631823831,-1.80849762939,3.56392130514,-0.0838503422004,23.09,0.000180030074119,-6.75102487832e-05,0.000706129212789,-0.251374781132,0.0304611455649,0.0444891043007,0.253621578217,-0.102766513824,-0.998136281967
1586422853.38,10.6569061279,-21.0802822113,74.9364242554,3.60524368286,1.87995231152,9.21788406372,0,0,0,-1.82455082529,3.56309736227,-0.0687889678275,23.09,0.000189384527529,-4.36627065835e-05,0.000733506092199,-0.266530483961,-0.0439275242388,0.0907095521688,0.246856689453,-0.0303287506104,-1.01038503647
1586422853.64,9.94672870636,-23.0230331421,76.0012359619,3.88580179214,1.7377396822,9.12735652924,0,0,0,-1.84067665553,3.56099787211,-0.0529470036302,23.09,0.000195099420531,-2.08414847319e-05,0.00076262847481,0.259548306465,-0.168885007501,0.0523468703032,0.215165376663,-0.0277128219604,-1.01724600792
1586422853.89,14.7738361359,-24.5426902771,76.2536773682,3.88129138947,2.27558326721,8.85107326508,0,0,0,-1.84502188144,3.54731910606,-0.0362883938439,23.08,0.000168859520011,-2.09472363424e-05,0.000790886866116,0.294336557388,-0.0830103009939,0.00350121525116,0.189873456955,-0.115806818008,-1.01188802719
1586422854.15,16.7707538605,-25.6694202423,75.8121261597,4.37440443039,2.51393079758,8.73212337494,0,0,0,-1.85262477425,3.55002492174,-0.0132543908483,23.08,0.000185041861843,-2.65400063631e-05,0.000824631690763,0.0643191859126,-0.0332403928041,-0.0122837722301,0.165644645691,-0.150732755661,-1.00865602493
1586422854.41,16.7828445435,-24.7459125519,75.8674087524,4.11562538147,2.47249865532,8.46973991394,0,0,0,-1.84911682829,3.55147006072,-0.0073863070812,23.07,0.000186261661519,-3.98525486064e-05,0.000816418120552,-0.0474415831268,0.147420749068,-0.0168159604073,0.180931806564,-0.152556180954,-1.00717449188
1586422854.67,13.9491729736,-21.8020858765,77.7578125,3.84443616867,1.99042761326,8.69143867493,0,0,0,-1.84006030397,3.56615791879,-0.00201591187199,23.07,0.000213656931306,-6.74083638409e-05,0.000796536042996,-0.253687947989,0.244464278221,0.11901319772,0.233015537262,-0.120658636093,-0.998112678528
1586422854.92,7.37322330475,-19.0304985046,80.6033401489,3.46137237549,1.27042758465,9.26437187195,0,0,0,-1.8507286086,3.58006515463,0.010080486062,23.07,0.000248853942882,-5.72028380072e-05,0.00080432987303,-0.514959096909,0.168422654271,0.169112563133,0.287821769714,-0.0345108509064,-0.998874187469
1586422855.18,-0.0194553863257,-17.5238246918,82.8937759399,3.15054798126,0.239986255765,9.52570915222,0,0,0,-1.87174286964,3.58881905574,0.0240666897256,23.07,0.000274877954016,-2.50160649557e-05,0.00082568260132,-0.273968011141,0.074197947979,0.107205890119,0.31462264061,0.0739316940308,-0.990905046463
1586422855.44,0.548737168312,-16.3423519135,83.8960494995,2.89096832275,0.00541904848069,8.69405078888,0,0,0,-1.85561483289,3.60950210163,-0.00703907051471,23.06,0.00029357281966,-3.57119585061e-05,0.000729826442883,0.203464031219,0.0845352336764,0.0313365906477,0.335089683533,0.0574448108673,-0.987100601196
1586422855.7,1.70982670784,-16.3857135773,85.0520019531,2.44943809509,0.270279020071,9.22877120972,-1.432,3.2529,0.570803244582,-1.77189889557,3.53952949003,-0.119137676714,23.06,0.000147046428877,-6.5190332358e-05,0.000586956998904,0.155187234282,-0.0631537288427,0.102763094008,0.338766813278,0.0223350524902,-0.983178853989
1586422855.96,2.93050336838,-18.1879348755,85.7135238647,3.06405711174,0.572016954422,9.51944732666,0,0,0,-1.78149753274,3.5369956773,-0.104839314424,23.06,0.000146761632832,-5.36489928441e-05,0.000611767179232,0.0402884632349,-0.15774782002,-0.0005651267129,0.307558059692,-0.005530834198,-0.99337887764
1586422856.22,4.46079397202,-20.1133766174,85.1469497681,3.53420424461,0.732915639877,9.35248184204,0,0,0,-1.78839307338,3.54350310259,-0.0897034448939,23.06,0.000166633277849,-5.20590173462e-05,0.00063142739426,0.172769144177,-0.108073301613,-0.0371914431453,0.272611618042,-0.0287935733795,-1.00311303139
1586422856.48,8.25878143311,-21.2525291443,84.3394927979,3.46458959579,1.0953181982,9.17835044861,0,0,0,-1.78090085933,3.53866565553,-0.0739315242395,23.05,0.000154988666179,-7.94700135032e-05,0.000647149199859,0.242492437363,-0.0513632036746,-0.0349294506013,0.252291202545,-0.0871803760529,-0.999257564545
1586422856.74,9.18544769287,-21.3316135406,83.9977722168,3.71035528183,0.770211100578,8.6010055542,0,0,0,-1.74190964674,3.555614444,-0.0746043404647,23.05,0.000174234336316,-0.000165810944609,0.000596098337502,-0.17073790729,0.0164294671267,0.0309256874025,0.250876426697,-0.103186607361,-0.999310255051
1586422857.0,3.91993951797,-21.2741718292,85.3515090942,3.68953299522,0.747405707836,9.4399471283,0,0,0,-1.756231607,3.55852802206,-0.0531499973522,23.04,0.000190178186158,-0.000150918615313,0.00063455961089,-0.348551005125,0.0606315508485,0.0872331112623,0.2518658638,-0.0261235237122,-1.01080942154
1586422857.25,-0.638938486576,-19.3490104675,86.8196182251,3.21715855598,-0.0199958719313,9.30336284637,0,0,0,-1.76222401867,3.55676687511,-0.0464107562614,23.05,0.000185562973635,-0.000140322897153,0.000639874224791,-0.227696165442,0.15734346211,0.0851659327745,0.284942626953,0.0404675006866,-1.00328469276
1586422857.51,-3.54597663879,-18.2237243652,87.3270187378,3.35642290115,-0.541001975536,9.48100852966,0,0,0,-1.77109231483,3.57198469466,-0.0287128710188,23.04,0.00022246264215,-0.000136372522482,0.000661408095184,-0.173021882772,0.0164860915393,0.000505708332639,0.304944515228,0.0827395915985,-0.998321056366
1586422857.77,-4.8977098465,-18.1479473114,86.6746444702,3.45670843124,-0.580681085587,9.64026260376,0,0,0,-1.79389611852,3.59104015606,-0.00426318801739,23.04,0.000273750445692,-0.000109655016512,0.000704069537079,-0.109881155193,-0.00347718619741,-0.0508967787027,0.304595470428,0.119854450226,-0.993313074112
1586422858.02,-5.84378767014,-18.0394382477,85.5341491699,2.97323107719,-0.714301049709,9.07773685455,0,0,0,-1.80358663361,3.59060546851,-0.0143796373612,23.04,0.000265039453703,-7.88299289861e-05,0.000677976453182,-0.0109266489744,0.0407902561128,-0.068841509521,0.305206775665,0.150281667709,-0.989394903183
1586422858.28,-2.19442820549,-16.7542457581,84.0056915283,2.64242601395,-0.356571733952,8.91697788239,-1.3421,3.2796,0.543055864637,-1.70968418316,3.53424742251,-0.133746244307,23.03,0.000154288142706,-0.000117646832269,0.000510806343439,0.329651683569,0.0928918421268,-0.108685784042,0.327808380127,0.103780031204,-0.987229347229
1586422858.54,3.01746702194,-16.8452243805,82.0486984253,2.66466903687,0.314429670572,9.35110664368,0,0,0,-1.70028740977,3.52685452436,-0.127830309054,23.04,0.000132944021769,-0.000138799839711,0.000507835507071,0.214461475611,-0.0873521193862,-0.118820384145,0.327461004257,0.0317544937134,-0.98787021637
1586422858.79,3.33118629456,-18.3020553589,80.0726699829,2.91173005104,0.538418412209,9.43162727356,0,0,0,-1.70163493987,3.51710288438,-0.117575582165,23.03,0.000112256911152,-0.000139122705408,0.00052296145213,-0.203372210264,-0.129172995687,-0.155093178153,0.303656816483,0.0456466674805,-0.995077133179
1586422859.05,1.72190141678,-19.8290100098,76.7938995361,3.28102064133,0.182659000158,9.43851661682,0,0,0,-1.70102324327,3.51298679038,-0.100629660758,23.03,0.000106301842918,-0.000150693547868,0.000547556227753,-0.0497639253736,-0.0692606121302,-0.206602796912,0.274767398834,0.106355190277,-1.00677990913
1586422859.31,3.73278641701,-20.157207489,74.6867141724,3.52614998817,0.465443462133,9.42523860931,0,0,0,-1.70010646598,3.51834972838,-0.0802605592668,23.03,0.000123813530809,-0.00016733043558,0.000574635219174,0.122980207205,0.00681038992479,-0.0682346597314,0.263063430786,0.0958280563354,-1.0092921257
1586422859.57,5.15225028992,-18.9142017365,74.1768188477,3.34616303444,0.798506915569,9.47961521149,0,0,0,-1.70392197356,3.52431344314,-0.0609269902565,23.02,0.000143851734813,-0.000172041468883,0.000601859611177,0.0384932458401,0.149646267295,-0.0281151421368,0.284469127655,0.0715353488922,-1.00492024422
1586422859.83,5.0553894043,-15.9598064423,73.9673233032,2.86730527878,0.688262581825,9.52003765106,0,0,0,-1.70015758389,3.53228001017,-0.0446676189177,23.02,0.000164695756526,-0.000189823620335,0.000616111397261,-0.0455211848021,0.200455471873,-0.0435322597623,0.333848237991,0.0774569511414,-0.987661838531
1586422860.09,3.97456431389,-13.4025278091,73.4100189209,2.41591024399,0.565470933914,9.52150726318,0,0,0,-1.69595698219,3.54011968094,-0.0353578021341,23.02,0.000182283542362,-0.000201755635931,0.000615748216013,-0.0881627351046,0.14040119946,-0.0556808039546,0.379229545593,0.102424383163,-0.973245382309
1586422860.35,3.1074514389,-11.7464265823,72.8886566162,2.17124223709,0.527509152889,9.58169364929,0,0,0,-1.69660732044,3.5497155553,-0.0281916692844,23.01,0.000203879850416,-0.000201073605828,0.000613982497154,-0.0565569885075,0.0950572937727,-0.0507902391255,0.403746843338,0.123902797699,-0.956031560898
1586422860.61,1.17527961731,-10.605471611,72.3655776978,1.93021464348,0.0880823656917,9.45921134949,0,0,0,-1.68772421323,3.55925613496,-0.0279839896286,23.02,0.000219697832513,-0.000214570772821,0.000591655762053,-0.195746585727,0.0489289090037,-0.00156275986228,0.421452045441,0.160724878311,-0.948919534683
1586422860.86,0.078800663352,-10.8661708832,72.5714492798,1.71790218353,-0.0952598080039,9.29368782043,0,0,0,-1.67459544473,3.5563017777,-0.0386112323223,23.01,0.0002034617775,-0.000227520552167,0.000550211316376,0.0754738152027,-0.0764004960656,0.00724028795958,0.420702934265,0.177925109863,-0.946707963943
1586422861.12,2.19724845886,-12.9178943634,72.7681884766,2.24839401245,0.259594023228,9.73119926453,0,0,0,-1.67151903197,3.55821266834,-0.0206316173181,23.01,0.000210271681806,-0.000241187837234,0.000571201733763,0.0968596041203,-0.16716684401,0.0260813198984,0.389816522598,0.139007329941,-0.964098453522
1586422861.38,1.80007779598,-14.9765920639,73.380317688,2.57365870476,0.351707845926,9.87075614929,0,0,0,-1.68116879251,3.55650370272,0.00647217148026,23.01,0.000214573520493,-0.000234883679284,0.000619274068287,-0.0923656150699,-0.104471683502,0.0650769248605,0.354240894318,0.139064311981,-0.976033687592
1586422861.64,0.194481924176,-15.9618854523,74.5325927734,2.53113055229,9.53483322519e-05,9.6377325058,0,0,0,-1.6820806258,3.54526177938,0.0237843327615,23.0,0.000192919282508,-0.000238969752911,0.000644241081282,-0.0440161749721,-0.0440787635744,0.0879680812359,0.339240312576,0.155308961868,-0.981361627579
1586422861.9,0.197822064161,-16.1996898651,76.1320266724,2.60426735878,0.121787212789,9.57870960236,-1.427,3.3235,0.552965643189,-1.63600965455,3.49610208264,-0.0853665703364,23.0,0.000115437069743,-0.000234625767567,0.00055090181262,0.0777056366205,0.0206368044019,0.0911107286811,0.334567546844,0.140558481216,-0.980940818787
1586422862.16,1.09250414371,-15.0933551788,76.5104064941,2.61406087875,0.279632538557,9.30857467651,0,0,0,-1.63792761981,3.49978300426,-0.0881801884028,23.0,0.000122350003802,-0.000222962641438,0.000532055189521,0.0176062826067,0.0892152935266,-0.0133469700813,0.352702140808,0.116996526718,-0.980518579483
1586422862.41,0.165245965123,-14.6219072342,75.4549179077,2.58646726608,-0.0217680390924,9.40054702759,0,0,0,-1.63415912093,3.50580902835,-0.0852708995459,23.0,0.000135329500865,-0.000228692373375,0.000521107198462,-0.113528609276,-0.0321488901973,-0.104114808142,0.364183664322,0.143562793732,-0.971360683441
1586422862.67,0.0418527014554,-15.5958147049,74.0821609497,2.72097325325,-0.193824678659,9.60903358459,0,0,0,-1.6268705014,3.50875158621,-0.0682517906177,22.99,0.000145162591373,-0.000252519608766,0.000539035121963,0.0610941946507,-0.0679273232818,-0.0374190546572,0.34602355957,0.166071653366,-0.980076551437
1586422862.93,2.45296287537,-16.2059078217,74.4038009644,2.85320568085,0.362104833126,9.64933300018,0,0,0,-1.62827927786,3.51229634816,-0.0498728671358,22.99,0.000158657842482,-0.000257676927872,0.000565802852745,0.201872974634,-0.000440701900516,0.0445222593844,0.333073139191,0.120708942413,-0.985975027084
1586422863.19,4.14240789413,-15.5888700485,74.7661590576,2.74204230309,0.876102566719,9.36730098724,0,0,0,-1.63644551059,3.51753895324,-0.0491691581925,22.97,0.000171112686973,-0.000234651556482,0.000558437252911,0.0814354196191,0.062157407403,-0.014953318052,0.343321323395,0.0858674049377,-0.984654426575
1586422863.45,4.78063726425,-14.8138113022,74.2815093994,2.57096815109,0.693133533001,9.23244762421,0,0,0,-1.6277812892,3.52227252351,-0.0516499332322,22.98,0.000178787980995,-0.000246156658901,0.000532578196031,0.00325459986925,0.0346345864236,-0.0109113771468,0.357974290848,0.0796179771423,-0.979876756668
1586422863.7,3.44360184669,-15.4055690765,74.6221237183,2.48067259789,0.443360298872,9.38601779938,0,0,0,-1.61976108198,3.51584006073,-0.0472261501528,22.98,0.000163552060414,-0.000261018761518,0.000525911246137,-0.103827208281,-0.0829506888986,0.0417241901159,0.349613904953,0.0994055271149,-0.980614423752
1586422863.97,2.00379514694,-16.8371124268,75.1264953613,2.7581372261,0.295714259148,9.6393699646,0,0,0,-1.62141757278,3.50893332201,-0.0285460907041,22.98,0.000153056288794,-0.000265112945847,0.000555533334156,-0.0448055565357,-0.0888019874692,0.0306671485305,0.324816226959,0.118324041367,-0.986734390259
1586422864.23,1.65682196617,-17.5897006989,75.6349258423,2.89576196671,0.30134832859,9.56561756134,0,0,0,-1.62594726284,3.50302549709,-0.0123674506859,22.98,0.000144261476437,-0.000261463221225,0.000580827929502,-0.00835359189659,-0.00248849391937,0.0321278385818,0.313287973404,0.116680860519,-0.993101835251
1586422864.48,1.20265948772,-17.4301624298,75.9717636108,2.898427248,0.124537982047,9.29484844208,-1.247,3.577,0.55891151032,-1.54640939887,3.51771030668,-0.121086209531,22.98,0.000137888095566,-0.000300483702004,0.000461346354978,-0.00684782909229,-0.00670962035656,0.0179355982691,0.317227363586,0.122018575668,-0.989681720734
1586422864.74,0.781535327435,-18.4377059937,76.4344787598,3.02379059792,0.00433361437172,9.31454277039,0,0,0,-1.54008568172,3.51371945823,-0.114255403829,22.97,0.00012881753417,-0.000314278004371,0.000461981672992,-0.0515613742173,-0.104576349258,0.0312035884708,0.301357746124,0.122250080109,-0.997813224792
1586422865.0,-0.28256881237,-19.8561096191,77.2036132812,3.18430447578,0.109849706292,9.5136384964,0,0,0,-1.54949812962,3.50472506939,-0.1001222079,22.97,0.000111490336207,-0.000296655323773,0.000493247432676,0.0334447287023,-0.0380449071527,0.056773994118,0.274797677994,0.13516163826,-1.00508880615
1586422865.26,1.45492970943,-18.8889636993,77.5491027832,3.08476042747,0.524556994438,9.4100894928,0,0,0,-1.56299763985,3.49919179105,-0.0942257180381,22.97,0.000100604138699,-0.000263607312558,0.00050725778753,0.127956107259,0.130400657654,-0.00546053191647,0.291630983353,0.101086854935,-0.998076915741
1586422865.52,4.00367927551,-16.9952640533,76.69972229,2.91478919983,0.697051286697,9.29515838623,0,0,0,-1.56305519325,3.50110165215,-0.0918888505774,22.96,0.000105957678653,-0.000258756201355,0.000499610526036,0.154609441757,0.109644077718,-0.115111492574,0.323248147964,0.0674433708191,-0.991804599762
1586422865.78,5.6606965065,-16.0372161865,74.6521759033,2.74809813499,0.625018835068,9.28816795349,0,0,0,-1.54682495559,3.50235300166,-0.085650322476,22.96,0.000110467994626,-0.000294021056083,0.000488701503363,0.00438746158034,-0.00138618075289,-0.113071896136,0.340568304062,0.0577416419983,-0.98641204834
1586422866.03,4.33414554596,-16.7161502838,73.8201217651,2.95920014381,0.546639740467,9.48445606232,0,0,0,-1.53974755899,3.50720452494,-0.0715606923287,22.96,0.000126476647767,-0.000313186643994,0.000501375146254,-0.176425680518,-0.07153005898,0.0152377448976,0.3302090168,0.0870501995087,-0.988293886185
1586422866.29,2.09433412552,-17.0568618774,74.7578430176,2.93065071106,0.530376374722,9.48609161377,0,0,0,-1.54889486557,3.50866642848,-0.0635252489081,22.96,0.00013242464415,-0.000291305541727,0.000513711329198,-0.0632505863905,0.0251078978181,0.039245005697,0.323678016663,0.1161673069,-0.987870454788
1586422866.55,2.91358208656,-17.0169906616,74.5739974976,2.95656347275,0.472234249115,9.39157390594,0,0,0,-1.5478258491,3.5122010526,-0.056183614164,22.96,0.000142406351449,-0.000291893553385,0.000515834481512,0.150498569012,-0.028009345755,-0.0054959221743,0.322384357452,0.106266260147,-0.990124702454
1586422866.81,6.5289478302,-17.2836380005,74.4399795532,3.00073361397,0.968832790852,9.30124759674,0,0,0,-1.54186486028,3.51555659705,-0.0485043065863,22.95,0.000152573596594,-0.000303344888066,0.000514775570277,0.263516426086,-0.00795275252312,-0.0346478149295,0.317860603333,0.044438123703,-0.99528002739
1586422867.07,8.08647060394,-17.2319126129,73.2977828979,2.84618711472,1.17314743996,9.22074699402,-1.1997,3.7322,0.561884443886,-1.46732785695,3.5559945316,-0.147808134374,22.96,0.00017125393451,-0.000343695722944,0.000407798110706,-0.0776961445808,-0.00953227560967,-0.0777788609266,0.318599939346,0.0266625881195,-0.994175672531
1586422867.33,5.5249915123,-17.8023357391,72.5831985474,2.87276697159,0.851433813572,9.32986545563,0,0,0,-1.46382335364,3.54967011206,-0.141886478158,22.95,0.000157005080634,-0.000348964144442,0.000410979151289,-0.220578208566,-0.0835485905409,0.00795778166503,0.307524681091,0.0748398303986,-0.994949102402
1586422867.59,4.0511007309,-19.0202236176,73.0116271973,3.33317637444,0.661079883575,9.58771800995,0,0,0,-1.46619457237,3.55299007832,-0.123081995511,22.95,0.000171997726501,-0.000348486547464,0.000447180735424,0.048298958689,-0.0471614301205,0.0456670410931,0.286116838455,0.0991687774658,-1.00484895706
1586422867.85,4.28342056274,-19.6970462799,74.8252868652,3.37483167648,0.944325685501,9.50028514862,0,0,0,-1.47848812575,3.55435532721,-0.109592428475,22.95,0.000179344085269,-0.000320042719469,0.000478431734388,0.16096368432,-0.0199537817389,0.146364271641,0.274716377258,0.0764241218567,-1.00570869446
1586422868.1,8.46121788025,-19.4316692352,76.0596160889,3.16350197792,1.5280302763,9.20782566071,0,0,0,-1.48465041798,3.54921876255,-0.105094004008,22.95,0.000167723914854,-0.00030120851933,0.000484259830855,0.356959611177,0.0422133356333,0.0168869365007,0.280720949173,-0.00646162033081,-1.00067687035
1586422868.36,12.5425748825,-18.1247959137,75.5542449951,3.02306175232,2.01434826851,8.8997335434,0,0,0,-1.4798813651,3.5480022094,-0.108291937959,22.95,0.000164356903452,-0.000302348415883,0.000461493204933,0.137800931931,0.094750367105,-0.083062812686,0.304523229599,-0.075248003006,-0.989108324051
1586422868.62,11.9146366119,-16.9520702362,73.9546813965,2.99375391006,1.73771476746,9.01510810852,0,0,0,-1.46691383905,3.55350965442,-0.10640005563,22.95,0.000179658812732,-0.00032519309292,0.000442468849623,-0.224272236228,0.00835974141955,-0.112325362861,0.324159622192,-0.0512437820435,-0.984727144241
1586422868.87,8.62987613678,-17.2740306854,73.5707092285,2.88994288445,1.29736542702,9.29421901703,0,0,0,-1.4605914857,3.55110923299,-0.0985487991485,22.94,0.0001768771271,-0.0003376551599,0.000445723550582,-0.169798001647,-0.0352799892426,0.0474052503705,0.31708741188,0.00564050674438,-0.989261388779
1586422869.13,7.17536401749,-17.5409145355,74.4502944946,2.75355887413,1.25395750999,9.34760856628,0,0,0,-1.46355159471,3.54061837587,-0.0930833306344,22.94,0.000153089341653,-0.000327717961243,0.000452848816398,-0.0310316719115,0.0141220185906,0.0398660190403,0.314270734787,0.0290763378143,-0.993727684021
1586422869.39,7.50389862061,-16.8829135895,74.9486465454,2.7116959095,1.22440516949,9.54264068604,0,0,0,-1.46498741209,3.53165304315,-0.0785928941507,22.94,0.000136837021691,-0.000327943722627,0.000479209773464,0.122016869485,0.081441745162,0.0141149414703,0.324995756149,0.0180354118347,-0.991263151169
1586422869.64,11.2285461426,-15.8394441605,74.8758163452,2.63163328171,1.77824294567,9.25665473938,0,0,0,-1.46022503471,3.52794441751,-0.072838330756,22.94,0.000131328966315,-0.000334917017355,0.000478737920199,0.224139034748,0.0205365996808,-0.0226642973721,0.344578504562,-0.0427858829498,-0.981449127197
1586422869.9,11.476102829,-16.3915634155,74.3940429688,2.82318735123,1.81010138988,9.36909008026,0,0,0,-1.45710529848,3.52801424192,-0.059497010454,22.93,0.000137630997623,-0.000342372783717,0.00049503654654,-0.125939399004,-0.0693600699306,-0.0137742627412,0.333051919937,-0.0444619655609,-0.982841491699
1586422870.16,8.77861213684,-17.0729694366,73.9390563965,3.05705142021,1.55934309959,9.42235946655,0,0,0,-1.4629353453,3.5351805415,-0.0477001553085,22.94,0.000158371798272,-0.000327396037743,0.000512297656521,-0.209691405296,-0.0210762042552,-0.0307600982487,0.318704366684,0.00447535514832,-0.991986751556
1586422870.42,6.5300989151,-16.9882049561,73.2649307251,3.09292221069,1.2519415617,9.43249034882,0,0,0,-1.47085429186,3.54587415078,-0.0380412352218,22.93,0.00018515396939,-0.000305571362571,0.000524604730167,-0.0844691172242,0.0222267583013,-0.026112055406,0.321800231934,0.0497689247131,-0.990754365921
1586422870.68,8.32297801971,-16.416721344,73.4775466919,2.79721689224,1.27690076828,9.3526725769,0,0,0,-1.46526501726,3.54569279044,-0.0288188881249,22.93,0.000187984411145,-0.00031580616293,0.000529002226171,0.273071110249,0.0548085384071,0.0297771878541,0.332739830017,0.0220959186554,-0.988856077194
1586422870.94,11.6739044189,-15.3361244202,74.4758300781,2.57921051979,1.69074857235,9.19935894012,0,0,0,-1.45104100747,3.54328278514,-0.0227099188922,22.93,0.000186100590981,-0.000342670548535,0.000520875848376,0.141666293144,0.0733824595809,0.0881789326668,0.347828626633,-0.0446457862854,-0.974184513092
1586422871.2,12.0295286179,-15.2632722855,75.9097671509,2.48189949989,2.07372093201,9.29683494568,0,0,0,-1.45469635885,3.53699998311,-0.0174103813307,22.93,0.000173690327111,-0.000330467563973,0.000525171438018,0.013698078692,0.00380743364803,0.0790326073766,0.354415655136,-0.0710055828094,-0.972944974899
1586422871.46,12.0871477127,-14.8791389465,76.9111633301,2.48156309128,2.10645389557,9.33623504639,-1.3288,3.7282,0.539091953217,-1.43146319244,3.57710254013,-0.126722462381,22.93,0.000189068909823,-0.000306264873069,0.000440074255536,0.0166641548276,0.0672282725573,0.0591987781227,0.361906051636,-0.0797047615051,-0.966688632965
1586422871.71,11.4753351212,-13.915520668,77.8471221924,2.16409921646,1.95148813725,9.18063163757,0,0,0,-1.42992371243,3.56940613038,-0.129968903703,22.93,0.000166865191601,-0.000299783752698,0.000422853806605,-0.0452607870102,0.0446254424751,0.024361724034,0.382727861404,-0.0784738063812,-0.962856054306
1586422871.97,10.7985868454,-14.1996383667,78.2638778687,2.29287075996,1.76888799667,9.39372634888,0,0,0,-1.42789021856,3.56360134842,-0.123878699462,22.93,0.000153807381294,-0.000301277189182,0.000428192561961,-0.0130258509889,-0.0411119349301,0.0602459535003,0.377952098846,-0.0710625648499,-0.960754394531
1586422872.23,11.2862987518,-15.09877491,79.8106689453,2.61180663109,1.97195017338,9.50847911835,0,0,0,-1.43310409375,3.5647082631,-0.111378380813,22.92,0.000160063823309,-0.000287880984997,0.000452421029179,0.10649728775,-0.0196620840579,0.127392098308,0.363180875778,-0.0980560779572,-0.966124773026
1586422872.48,10.9085588455,-15.4198570251,81.4034500122,2.62492752075,1.98293948174,9.38300132751,0,0,0,-1.4403333771,3.56532000134,-0.104966290668,22.92,0.00016175719928,-0.000265758285844,0.000462855550564,-0.174900174141,-0.0109542189166,0.090453222394,0.360181331635,-0.111221313477,-0.965660572052
1586422872.75,7.72289943695,-15.8483848572,81.4223480225,2.6137881279,1.26823985577,9.32089519501,0,0,0,-1.43802555374,3.56247423833,-0.10157816955,22.92,0.000154061837196,-0.000265754305299,0.000458904255621,-0.238435432315,-0.0563129857183,-0.0478554703295,0.354099988937,-0.0593271255493,-0.976809740067
1586422873.01,4.79630088806,-17.4388904572,80.1647720337,2.70978760719,0.609354555607,9.41198921204,0,0,0,-1.43028193194,3.55048393831,-0.0921068924918,22.92,0.000127135429945,-0.000285830546788,0.00046827936704,-0.180078342557,-0.183497428894,-0.0533666647971,0.326325893402,0.00244927406311,-0.99014210701
1586422873.26,5.61523199081,-20.5427761078,78.6938095093,3.28860926628,0.924271166325,9.35551261902,0,0,0,-1.43307719887,3.54162757448,-0.0791864482651,22.92,0.000108904128207,-0.000282868380757,0.000492341158268,0.227647900581,-0.133260384202,-0.0988785475492,0.269504070282,0.00738406181335,-1.00480818748
1586422873.52,11.5091705322,-21.7684173584,76.4575653076,3.4630022049,1.84208893776,9.17074966431,0,0,0,-1.43656447517,3.53054152064,-0.0648229031047,22.92,8.80474355305e-05,-0.000280062742581,0.000520030040806,0.413033872843,-0.0912514179945,-0.115352965891,0.244933366776,-0.0718293190002,-1.00660896301
1586422873.78,17.1082038879,-20.3497867584,74.3251724243,3.42246747017,2.62801623344,8.87765884399,0,0,0,-1.43254091908,3.52812188315,-0.0544803767879,22.92,8.9187159536e-05,-0.000289362381267,0.000529668669644,0.212992265821,0.142866253853,-0.200871482491,0.261944532394,-0.15198636055,-0.988034963608
1586422874.04,18.4214725494,-17.2762470245,72.7524108887,3.11313557625,2.73728728294,8.98464298248,-1.3366,3.6939,0.55891151032,-1.40338677507,3.5679540999,-0.148676699343,22.92,0.00012494237332,-0.000301374207443,0.000459347995811,-0.0989403799176,0.163227498531,-0.0848509371281,0.314372062683,-0.157847642899,-0.970161437988
1586422874.29,12.6350488663,-17.6466579437,75.014503479,3.35543489456,2.02529501915,9.02914619446,0,0,0,-1.39813905986,3.58255744072,-0.144512137537,22.91,0.000167443195022,-0.000303680555194,0.000448617736155,-0.435084730387,-0.152586266398,0.338799774647,0.320258617401,-0.0820977687836,-0.984857559204
1586422874.55,9.28493785858,-22.6295909882,80.3566589355,3.92772173882,1.81119644642,8.93220806122,0,0,0,-1.40919598998,3.59025174232,-0.142859379374,22.91,0.000184393549552,-0.000264416387909,0.000447687759817,0.272918999195,-0.269793659449,0.389900356531,0.232838869095,-0.0745980739594,-1.00635814667
1586422874.81,13.4863777161,-28.2513389587,85.1633682251,4.46399784088,2.45406699181,8.65416908264,0,0,0,-1.42879822846,3.58336390858,-0.135095130149,22.92,0.000163772014719,-0.000214920945079,0.000475245661755,0.0396630428731,-0.534645974636,0.330966293812,0.135494947433,-0.208128213882,-1.00227832794
1586422875.07,14.3774557114,-35.9818572998,83.6590270996,4.89308166504,2.11362481117,8.15505981445,0,0,0,-1.44297683627,3.54453518146,-0.120510182496,22.91,6.44368353521e-05,-0.000198682504265,0.000527145846772,0.45604622364,-0.199974551797,-0.120327375829,-0.00568866729736,-0.207649946213,-1.0112953186
1586422875.33,25.1413421631,-30.0849285126,83.1876602173,5.02343273163,3.14731216431,7.6570315361,0,0,0,-1.42345348299,3.54471618494,-0.109662326451,22.91,7.63944378436e-05,-0.000251294691283,0.00052369116471,0.518975913525,0.560265660286,-0.238323882222,0.0860116481781,-0.385227680206,-0.94454741478
1586422875.59,30.8270893097,-24.4572467804,81.895401001,4.46845054626,4.58205509186,7.43527555466,0,0,0,-1.41802998987,3.56109890457,-0.110616934891,22.9,0.000123030032935,-0.000250843243256,0.000496789681142,0.504631757736,0.117816768587,-0.267196118832,0.193984270096,-0.460406303406,-0.888340234756
1586422875.85,39.4280967712,-22.3269519806,79.8907775879,3.76999592781,5.40566444397,6.99262237549,0,0,0,-1.40122733008,3.55793916095,-0.10162304463,22.91,0.000127914059792,-0.000292436398378,0.000494519695597,0.373162001371,0.0252908244729,-0.0431720428169,0.234587669373,-0.566433429718,-0.80895614624
1586422876.1,38.6732254028,-22.5378379822,81.7906570435,3.68287491798,5.39684915543,7.2054309845,0,0,0,-1.3903589902,3.54901713959,-0.0889229020083,22.9,0.000118775670995,-0.000323470912424,0.000509269807467,-0.297413527966,0.0566890798509,0.160002589226,0.233822584152,-0.577539920807,-0.800142765045
1586422876.36,31.614610672,-22.9954433441,84.4771194458,3.8418211937,4.92450332642,7.93248271942,0,0,0,-1.40000369057,3.54623716815,-0.0765669165769,22.9,0.000119633519657,-0.000301393057803,0.000536819802784,-0.179530009627,0.0542527213693,0.129392609,0.222319602966,-0.494618177414,-0.856720924377
1586422876.62,32.7189750671,-24.2601242065,86.0976028442,3.91842842102,5.08910703659,7.60926675797,-1.2198,3.677,0.576749111713,-1.37296965291,3.56743083373,-0.173255787944,22.9,0.00011218979407,-0.000272752321353,0.00046790573327,0.257613062859,-0.0388506986201,0.182432174683,0.202000379562,-0.525928735733,-0.840673923492
1586422876.88,36.9432983398,-24.9900054932,88.3710861206,4.09959459305,5.56707382202,7.2606086731,0,0,0,-1.38109856156,3.56361409731,-0.166530478657,22.89,0.000106969612525,-0.000248125545747,0.000484582049226,0.467229157686,0.0931749939919,0.0840279236436,0.187336683273,-0.603748083115,-0.786394834518
1586422877.14,39.0954322815,-24.2821407318,89.8003463745,3.8393676281,5.61523914337,7.08013105392,0,0,0,-1.380911443,3.55282353629,-0.15869173236,22.89,8.49354321656e-05,-0.000251000601983,0.00049982245589,-0.0756275057793,0.0875325948,0.0191194992512,0.194710969925,-0.646471977234,-0.745905637741
1586422877.39,38.2575416565,-23.4009685516,90.7658538818,3.86175107956,5.54950094223,7.19880008698,0,0,0,-1.38008349531,3.54797970414,-0.14976602826,22.89,8.08670809167e-05,-0.00025406967144,0.000513916074282,0.123019345105,0.0756582319736,-0.00502392649651,0.210183382034,-0.638828754425,-0.752701044083
1586422877.65,39.9043579102,-22.5081977844,91.6768569946,3.68336653709,5.65069103241,6.98022270203,0,0,0,-1.37291321418,3.54147629963,-0.142863280166,22.89,7.25343850111e-05,-0.000272792485832,0.000516709058737,0.186900645494,0.111311882734,-0.0306855943054,0.225038051605,-0.662987709045,-0.722509145737
1586422877.91,37.5265007019,-22.0474681854,94.8818435669,3.70777964592,5.6051659584,7.51503705978,0,0,0,-1.377485535,3.53797796056,-0.128005296412,22.89,7.52323929854e-05,-0.000265445582273,0.000550740229098,-0.270932018757,0.214922770858,0.259172171354,0.227803945541,-0.661438703537,-0.724650621414
1586422878.17,29.2949676514,-21.4334106445,100.926834106,3.74247384071,4.62932920456,8.10384845734,0,0,0,-1.38357103565,3.54255124944,-0.118128838715,22.89,9.3120274188e-05,-0.000247171807101,0.000566255035397,-0.437276721001,0.238872081041,0.28772225976,0.224026203156,-0.602712392807,-0.779959201813
1586422878.43,21.3694324493,-21.1255054474,106.619827271,3.23839378357,3.43900704384,8.24471759796,0,0,0,-1.38347811344,3.53356728586,-0.126908645829,22.88,5.86426608475e-05,-0.000235174591955,0.000534069620523,-0.377675175667,0.0469668321311,0.326862365007,0.206680059433,-0.538384437561,-0.833385705948
1586422878.68,16.9730987549,-22.4856147766,111.047447205,3.57579731941,2.66955375671,8.51748943329,0,0,0,-1.38172208664,3.52827432473,-0.12919300945,22.88,3.80339037389e-05,-0.000232513960597,0.000516101284242,-0.161706745625,0.0545272938907,0.301398694515,0.16735458374,-0.506438493729,-0.864726305008
1586422878.94,10.9239969254,-21.9043483734,115.049125671,3.61156272888,1.76727104187,8.9289484024,0,0,0,-1.38241365668,3.52759868905,-0.125349738735,22.88,3.22346354254e-05,-0.000227615480924,0.00051470075313,-0.343650847673,0.109919056296,0.166039094329,0.15204834938,-0.450104475021,-0.896551847458
1586422879.2,7.18029022217,-20.7999134064,117.406845093,3.64192986488,0.956852853298,9.1922492981,-0.931,3.7349,0.540082931072,-1.28883392963,3.57301612499,-0.194273057326,22.88,6.53577700727e-05,-0.000285937825184,0.000446534540893,-0.068190716207,0.0767493695021,0.124986670911,0.157279491425,-0.406993150711,-0.915722846985
1586422879.45,6.21697759628,-20.3020401001,119.421859741,3.54222846031,0.97358751297,9.19519805908,0,0,0,-1.28690221099,3.57963674262,-0.186902507156,22.88,8.06964606313e-05,-0.000288516650367,0.00045151042716,-0.000200793190743,0.0297745745629,0.140147477388,0.155025959015,-0.410213947296,-0.915782213211
1586422879.71,6.85974836349,-19.5934562683,121.774299622,3.03410887718,1.16697382927,9.19196510315,0,0,0,-1.28779232089,3.57330426439,-0.184723024136,22.88,5.1753607022e-05,-0.000281403248097,0.000452845040615,0.197382897139,0.107098601758,0.114380054176,0.144679784775,-0.435311079025,-0.903351306915
1586422879.97,10.4635734558,-17.3665714264,122.91104126,2.78796052933,1.78758203983,9.12895965576,0,0,0,-1.28813739568,3.57133054866,-0.184801388624,22.88,3.57285971943e-05,-0.000271564249925,0.000443543575244,0.316275268793,0.183075234294,-0.00732392445207,0.175790786743,-0.495227098465,-0.85897731781
1586422880.22,15.1121740341,-14.8251457214,122.935523987,2.57333874702,2.44699430466,9.3726682663,0,0,0,-1.28793091921,3.57348287556,-0.172109624466,22.88,4.28199716568e-05,-0.00027455423776,0.000467725774563,0.271947979927,0.1520062536,-0.0474710166454,0.221609830856,-0.558627843857,-0.809268474579
1586422880.48,17.0778312683,-12.7920646667,123.02571106,2.25871825218,2.80120277405,9.31823062897,0,0,0,-1.28773456024,3.576763465,-0.160566215243,22.88,5.26431832212e-05,-0.000275606830335,0.000487060225785,0.016457028687,0.119706816971,-0.0246416814625,0.251049995422,-0.592340230942,-0.777068376541
1586422880.74,15.2828502655,-11.2910013199,123.743934631,2.15938568115,2.51883220673,9.37766551971,0,0,0,-1.28648272542,3.58655835825,-0.150062411406,22.88,8.00400419225e-05,-0.00027766850497,0.000497798580633,-0.118972375989,0.0901518538594,0.0936536192894,0.274453163147,-0.571202039719,-0.78475856781
1586422880.99,14.1305999756,-10.9570627213,126.37676239,2.13650655746,2.18662810326,9.29348278046,0,0,0,-1.27845483293,3.59908362798,-0.142365726401,22.87,0.000111448687323,-0.000296834671299,0.000491972509774,-0.0427991263568,0.0374784767628,0.208572551608,0.262947559357,-0.571745157242,-0.790018558502
1586422881.26,12.1944942474,-12.047750473,130.610092163,2.10253214836,1.99285149574,9.54916477203,0,0,0,-1.27792915118,3.60244020888,-0.130304874755,22.87,0.000117744737948,-0.000300827353244,0.0005114133891,-0.156730517745,-0.0303235072643,0.321450829506,0.215824127197,-0.57448554039,-0.80113697052
1586422881.51,8.18198776245,-13.2600259781,135.136505127,2.36620116234,1.54606473446,9.59938049316,0,0,0,-1.286020844,3.60896919792,-0.121559963462,22.87,0.000131199609403,-0.000278970194274,0.000528196878399,-0.214211374521,-0.014005982317,0.249658092856,0.157777309418,-0.548337459564,-0.830735683441
1586422881.77,3.56149482727,-13.3133554459,136.614624023,2.0919444561,0.787281990051,9.50502872467,0,0,0,-1.29177197985,3.60631647685,-0.121720718548,22.87,0.000111374657128,-0.000256080843495,0.000524981474194,-0.301012545824,0.0168407391757,0.0212201923132,0.141429424286,-0.489119529724,-0.872534275055
1586422882.03,-0.760481834412,-12.0160179138,135.930099487,1.7702999115,-0.0237306728959,9.37659263611,0,0,0,-1.29099838471,3.60127815726,-0.129171426356,22.87,7.90299795376e-05,-0.000243742077259,0.000498752083472,-0.319154679775,0.132031276822,-0.109635360539,0.1658411026,-0.416850805283,-0.909441232681
1586422882.29,-5.70647192001,-10.7972040176,133.200439453,1.74192762375,-0.793347299099,9.48607730865,0,0,0,-1.29432980017,3.60212399548,-0.132125114662,22.87,6.74973672534e-05,-0.000224037169094,0.000486052254495,-0.335465222597,0.084493547678,-0.240697875619,0.211638212204,-0.315080881119,-0.947445631027
1586422882.55,-7.29657745361,-10.2873868942,129.620361328,1.75935518742,-1.07732498646,9.58176326752,0,0,0,-1.29877407536,3.60590456745,-0.129948753545,22.87,6.82753523555e-05,-0.000206174396721,0.000486435643386,-0.0520154908299,0.0450456626713,-0.218061387539,0.24597120285,-0.267268180847,-0.9587059021
1586422882.8,-7.82483816147,-10.5317792892,125.855072021,1.93009245396,-1.1722111702,9.70155334473,-0.533,3.8125,0.55692955461,-1.15457696353,3.65190751033,-0.208843583752,22.87,8.78194621474e-05,-0.000271120715069,0.000409274660264,-0.180270582438,-0.0106804119423,-0.298401474953,0.270823478699,-0.228477239609,-0.964129447937
1586422883.06,-11.410159111,-12.0182600021,120.60308075,2.03476428986,-2.03940844536,9.46166229248,0,0,0,-1.14783342388,3.65569344818,-0.202770437165,22.87,8.68173747502e-05,-0.000287268850063,0.000415260198618,-0.372073143721,-0.0711479038,-0.366022139788,0.283175945282,-0.130258083344,-0.985827445984
1586422883.31,-15.7613716125,-14.0290222168,115.697257996,2.26655030251,-2.66528248787,9.53451156616,0,0,0,-1.14584035654,3.6537710881,-0.187358640812,22.87,7.37615483269e-05,-0.000296395888246,0.000458055239388,-0.310663789511,0.00665058009326,-0.333358258009,0.282328128815,-0.00819849967957,-1.00063920021
1586422883.57,-19.2714538574,-13.4147729874,110.387908936,2.59091329575,-3.16649222374,9.27903461456,0,0,0,-1.14647789495,3.66730608726,-0.173241150206,22.87,0.00011034862419,-0.000298262208695,0.000489056057034,-0.460111260414,0.21063400805,-0.275957942009,0.313480615616,0.0989303588867,-0.99201130867
1586422883.83,-26.3318519592,-11.695309639,107.036613464,1.99091899395,-3.8525853157,8.593791008,0,0,0,-1.15696431511,3.67072057489,-0.175754670747,22.87,0.000110465471677,-0.000250173578957,0.000486718012303,-0.485961824656,0.214931488037,-0.150097027421,0.354845046997,0.250886678696,-0.960969209671
1586422884.09,-30.1448154449,-10.6780700684,103.098922729,1.75876784325,-4.72935009003,8.3007183075,0,0,0,-1.15673926028,3.67271177172,-0.176178975047,22.87,0.000103407543403,-0.000236734034446,0.00048207201156,-0.2553345263,0.140045851469,-0.16880081594,0.390718698502,0.347079515457,-0.923491239548
1586422884.35,-29.6533317566,-10.0764064789,99.0835494995,1.69735121727,-4.78169631958,8.45397186279,0,0,0,-1.15355455642,3.67573342635,-0.17148653362,22.87,0.000101055489418,-0.000236838087402,0.000488721122832,0.188827052712,0.181746393442,-0.234008327127,0.415939569473,0.376255273819,-0.901829242706
1586422884.6,-19.1936397552,-9.08650398254,94.4813613892,1.82925784588,-3.35201358795,9.07100296021,0,0,0,-1.1441726784,3.69030976707,-0.167838034202,22.87,0.000134361161091,-0.000256613934378,0.000479029522532,0.947890460491,0.169266134501,-0.230477586389,0.447981834412,0.255213260651,-0.923836231232
1586422884.87,-3.15403628349,-7.87334871292,91.333190918,1.51280498505,-0.588427305222,9.73873710632,0,0,0,-1.13923390013,3.69875374272,-0.161102035494,22.87,0.000154535657105,-0.0002630198409,0.000482782861087,1.03953397274,0.0909561812878,-0.159273311496,0.475650072098,0.024516582489,-0.92672419548
1586422885.12,10.4820051193,-6.72305107117,89.5385742188,1.33087551594,1.68460679054,9.62403678894,0,0,0,-1.13300132568,3.70683288645,-0.153314831926,22.87,0.000176446307724,-0.000273675349968,0.00048754063031,0.731852889061,0.0558286271989,-0.0984019041061,0.495709657669,-0.177287101746,-0.887202978134
1586422885.38,17.3843822479,-6.24610614777,88.6470947266,0.965830862522,2.81841921806,9.20083904266,0,0,0,-1.12279344448,3.7041606207,-0.152149877129,22.87,0.000164095437946,-0.000285293927277,0.000474310240939,0.271491229534,-0.0174704995006,-0.0436022952199,0.50629401207,-0.278342723846,-0.847804307938
1586422885.64,19.4444103241,-6.54484319687,88.1402587891,1.03999376297,3.21882247925,9.24880504608,-0.5895,3.3327,0.552965643189,-1.01487636942,3.63155401566,-0.224408108692,22.86,9.05400463149e-05,-0.000336427773181,0.000415905973854,0.0210398826748,-0.022604689002,-0.0110737988725,0.502975940704,-0.307611942291,-0.840179443359
1586422885.9,17.9892883301,-6.27277517319,87.8262176514,1.05618715286,2.99785423279,9.44698619843,0,0,0,-1.01064216664,3.62984351222,-0.215316863703,22.86,8.8626049398e-05,-0.00033816358077,0.000435495445909,-0.170688718557,0.0469492822886,-0.0371415279806,0.50345993042,-0.283192157745,-0.84898519516
1586422886.16,14.4768390656,-5.22592926025,87.9171981812,0.842413663864,2.36373257637,9.604139328,0,0,0,-1.00361509557,3.6274223859,-0.206399398913,22.86,8.25561954786e-05,-0.000347474485512,0.000452003561171,-0.271708577871,0.0702822804451,0.0162040870637,0.520420074463,-0.228489637375,-0.859008789062
1586422886.42,10.6919336319,-4.43200063705,88.9227600098,0.632238745689,1.87245249748,9.7381696701,0,0,0,-1.00061087594,3.62235138297,-0.199575637235,22.84,6.75957768257e-05,-0.000340685954326,0.000466482673365,-0.18285664916,0.0745723173022,0.0767150968313,0.533477544785,-0.177528858185,-0.862499237061
1586422886.68,12.4879312515,-2.12312245369,90.439956665,0.323709070683,2.1887280941,9.72021198273,0,0,0,-0.998528265356,3.62005585438,-0.191762157333,22.86,6.28134373374e-05,-0.000332581578195,0.00048358280492,0.473572432995,0.315050333738,0.0686901733279,0.562381505966,-0.210654735565,-0.831417322159
1586422886.93,20.2794380188,3.34793925285,92.2052841187,-0.433336764574,3.08522891998,9.14214897156,0,0,0,-0.981847057937,3.62617601187,-0.186536834611,22.86,7.95877347746e-05,-0.000369628888481,0.00047787786284,0.323388189077,0.371386379004,-0.0296894796193,0.642805337906,-0.323650598526,-0.730050325394
1586422887.18,19.3048210144,8.04511642456,93.8376541138,-1.23426568508,2.94161224365,9.30030727386,0,0,0,-0.967565828688,3.63177252278,-0.175754891954,22.86,9.63521338275e-05,-0.000402153352426,0.000493323155211,-0.320241183043,0.324669957161,0.050818040967,0.70593380928,-0.315286159515,-0.674858808517
1586422887.44,16.1382522583,12.7862558365,96.9266662598,-1.93977713585,2.84462952614,9.26658153534,0,0,0,-0.969492250943,3.64052531657,-0.171081752492,22.86,0.000124361428089,-0.000379908881,0.000501990842162,-0.162550583482,0.393952548504,0.141974106431,0.75627040863,-0.289652585983,-0.627703905106
1586422887.7,15.5096883774,17.4006004333,100.894775391,-2.97356033325,2.78522896767,9.02377223969,0,0,0,-0.97318437886,3.63986586914,-0.171543342345,22.86,0.000119593053024,-0.000345754838358,0.000501870028154,-0.17563007772,0.319561004639,0.14341430366,0.798752069473,-0.3014523983,-0.56364774704
1586422887.96,11.8732366562,21.1911563873,104.053161621,-3.59654974937,2.06705546379,8.90426254272,-0.5242,3.8049,0.570803244582,-0.890109463127,3.66962541369,-0.246117354905,22.85,0.000119763454669,-0.000369523708436,0.000430250779016,-0.416811972857,0.267409205437,0.114749677479,0.832338571548,-0.29215836525,-0.526875019073
1586422888.22,11.216178894,23.2360401154,106.068374634,-3.94473934174,1.62538397312,8.69573974609,0,0,0,-0.878118481107,3.67136918995,-0.249338784366,22.85,0.000111212366222,-0.00038455863571,0.00041265739133,0.0449026077986,0.079805970192,0.0988794639707,0.842177629471,-0.293319702148,-0.503415584564
1586422888.48,13.343454361,22.7656326294,107.901748657,-4.07992696762,1.82879424095,8.72458171844,0,0,0,-0.861273439483,3.66647759519,-0.250467868113,22.86,7.78349245522e-05,-0.000415145498337,0.000403222878823,0.0290656499565,-0.0563025586307,0.140754744411,0.829934358597,-0.331039190292,-0.496573448181
1586422888.74,13.1166353226,20.5077953339,110.221076965,-3.64270806313,2.13754415512,8.99273014069,0,0,0,-0.855744601425,3.66225432887,-0.249374232832,22.85,5.3460312365e-05,-0.0004089407875,0.000408000792881,-0.0565141513944,-0.148269936442,0.173157662153,0.797602176666,-0.359827756882,-0.527255773544
1586422888.99,13.8274621964,17.5027122498,112.03604126,-2.91662597656,2.33818149567,9.17756748199,0,0,0,-0.853565541206,3.66548710804,-0.245270682344,22.85,5.76021596014e-05,-0.000396824866578,0.000418549313762,0.0372415520251,-0.17885568738,0.147355571389,0.755885601044,-0.392593622208,-0.561491012573
1586422889.24,15.2561073303,13.8365011215,113.064865112,-2.18702340126,2.50747895241,9.12495803833,0,0,0,-0.847861863592,3.67435938316,-0.244452520054,22.85,7.68541012937e-05,-0.000396786027527,0.000410271063513,0.103732444346,-0.262268364429,0.114134199917,0.709608316422,-0.434598684311,-0.591427087784
1586422889.5,16.3097476959,9.99093914032,113.942329407,-1.76276469231,2.69878315926,9.39997673035,0,0,0,-0.841720700848,3.6744952265,-0.237691289514,22.85,6.9558996681e-05,-0.0003986294129,0.00042514076427,0.041912689805,-0.164343103766,0.155591443181,0.651030302048,-0.462128400803,-0.629390239716
1586422889.76,16.5904254913,7.53684854507,115.148368835,-1.20970463753,2.87400794029,9.57310676575,0,0,0,-0.840915223632,3.67826426107,-0.225801340866,22.84,7.89179156454e-05,-0.000387001168359,0.000455198553083,0.0209173187613,-0.149067506194,0.0986142009497,0.6161236763,-0.483111619949,-0.64907169342
1586422890.02,18.0693912506,5.73813199997,115.627853394,-0.942146420479,3.09249043465,9.60724830627,0,0,0,-0.839465420079,3.68007518564,-0.210623407437,22.84,8.36181429027e-05,-0.000379265883879,0.000494573335019,0.152234956622,-0.0697307512164,0.0494366586208,0.587192058563,-0.506670951843,-0.655893564224
1586422890.27,21.0578594208,5.54565429688,116.102493286,-0.882044255733,3.53579998016,9.36820316315,0,0,0,-0.836547973485,3.68325600266,-0.197010717285,22.85,9.1714933119e-05,-0.00037610425237,0.000525396967919,0.241279512644,0.0593597255647,0.0235000699759,0.579878091812,-0.544770002365,-0.625712394714
1586422890.53,23.6740264893,6.79512786865,117.58757019,-1.16271483898,3.92778849602,8.91590023041,0,0,0,-0.83124983106,3.68572174496,-0.193042134581,22.84,9.1513871854e-05,-0.000374226291587,0.000524213321834,0.0652177408338,0.118625737727,0.0894075334072,0.589518547058,-0.583748102188,-0.580740690231
1586422890.79,25.9583282471,7.49226522446,119.526672363,-1.01181602478,4.32138729095,8.66282558441,0,0,0,-0.829421868869,3.69881936876,-0.190170547458,22.84,0.00012476489854,-0.000366480827919,0.000513481233656,0.259549826384,0.063216522336,0.0947172194719,0.589447259903,-0.615564823151,-0.545397996902
1586422891.04,28.3227558136,7.74965667725,121.164337158,-1.42396092415,4.48046207428,8.54481697083,0,0,0,-0.817873659487,3.69862807339,-0.185744725286,22.84,0.000112219612532,-0.000383008311053,0.000511549923019,0.013249184005,0.103960007429,0.0858983173966,0.578898429871,-0.651322841644,-0.511424541473
1586422891.3,26.2403793335,9.03337001801,123.329490662,-1.45948672295,4.27764797211,8.59039306641,0,0,0,-0.812368472618,3.70570610865,-0.184515621669,22.84,0.000122435616988,-0.000383909352374,0.000498593968518,-0.20540215075,0.147928148508,0.0845430716872,0.582878351212,-0.643708705902,-0.51739859581
1586422891.55,24.166967392,10.5220584869,124.952079773,-1.70301127434,3.945510149,9.12046527863,0,0,0,-0.809207467184,3.71010104021,-0.166503641384,22.84,0.000133608772273,-0.000384558842855,0.000538357084144,-0.00612549483776,0.123058818281,0.0187775120139,0.592994213104,-0.630279064178,-0.523767471313
1586422891.81,22.0839767456,12.4198198318,125.796775818,-2.04480600357,3.16139984131,8.92630004883,0,0,0,-0.786549929827,3.71987946151,-0.156222550237,22.83,0.000142018357873,-0.000440463061028,0.000544092947362,-0.19821049273,0.137588992715,-0.00157617079094,0.611903905869,-0.61506485939,-0.526047229767
1586422892.07,19.8053188324,14.2932338715,128.612045288,-2.02635335922,2.63371944427,8.89008998871,0,0,0,-0.760168793497,3.74652631095,-0.146092278706,22.83,0.000192632985754,-0.000515330743278,0.000536803494501,-0.238579764962,0.285669445992,0.26036131382,0.609981536865,-0.6016497612,-0.529949426651
1586422892.33,12.7634325027,15.5878152847,133.389038086,-2.80075359344,2.06833910942,9.23808193207,-0.2254,4.227,0.642153650155,-0.650253458278,3.83802192591,-0.238401528176,22.83,0.000204075987006,-0.000592047435274,0.000448833075445,-0.654002606869,0.120061717927,0.257867574692,0.590984582901,-0.564901351929,-0.591739416122
1586422892.58,6.3568983078,16.5181083679,137.513031006,-2.67370462418,1.1878939867,9.36558437347,0,0,0,-0.651648686485,3.84818634675,-0.23553405206,22.83,0.000218312207658,-0.000574111015095,0.000450482258435,-0.399809330702,0.076453641057,0.266987532377,0.572130918503,-0.520936727524,-0.656281709671
1586422892.84,0.248754963279,16.2022190094,141.72795105,-2.66347146034,-0.0599456839263,9.29120445251,0,0,0,-0.644320783106,3.8608216814,-0.237263567409,22.83,0.000227554709918,-0.000586425584402,0.000434105140803,-0.519579350948,-0.0939206629992,0.303194969893,0.53041100502,-0.470882177353,-0.728016138077
1586422893.09,-1.01914596558,12.7415208817,147.928146362,-1.94948148727,-0.261099487543,9.83316898346,0,0,0,-0.641026616228,3.8758077917,-0.223583274984,22.82,0.000254045261028,-0.000597635369274,0.000466359465418,-0.108505159616,-0.267091363668,0.401407361031,0.430574655533,-0.481458902359,-0.779141902924
1586422893.34,-5.02079725266,10.1627349854,153.260971069,-1.50673282146,-0.584260582924,9.91861629486,0,0,0,-0.65145369025,3.88799164879,-0.210472795432,22.82,0.000281861786646,-0.000565180877338,0.000502845662651,-0.515412569046,-0.136343255639,0.323735147715,0.345343828201,-0.445507764816,-0.844780921936
1586422893.6,-10.4467525482,9.52806663513,156.958450317,-1.562281847,-1.29418087006,9.81724739075,0,0,0,-0.668127240301,3.89248061781,-0.199786405988,22.82,0.000289477792779,-0.000507626123866,0.000539965945349,-0.200615525246,-0.0322800241411,0.185026079416,0.292567968369,-0.373957157135,-0.905156135559
1586422893.86,-8.98450469971,10.5888204575,159.233383179,-1.85157728195,-1.30910253525,9.86539268494,0,0,0,-0.674625636086,3.89533220736,-0.186238022972,22.81,0.000283267681527,-0.000482829978852,0.000582093403382,0.237730816007,0.120275720954,0.16204072535,0.285042762756,-0.394729614258,-0.895967245102
1586422894.12,-5.98097324371,13.5926704407,161.481613159,-2.26936292648,-0.872726202011,9.86696529388,0,0,0,-0.67963065151,3.90146501853,-0.168851708473,22.81,0.00028778546629,-0.000467534698312,0.000629820301027,0.0910619646311,0.24514041841,0.161931172013,0.304177284241,-0.45126247406,-0.860730409622
1586422894.38,-5.33188581467,19.0609264374,162.52482605,-3.0149140358,-0.831728219986,9.39284515381,0,0,0,-0.682596300294,3.91585661479,-0.157879932487,22.81,0.000311824274057,-0.000463677766859,0.000649558052876,0.0231752414256,0.457516998053,0.0797941088676,0.365673303604,-0.469301223755,-0.824404001236
1586422894.64,-5.94831609726,26.5141658783,164.15713501,-4.02744197845,-0.921276926994,8.58491325378,0,0,0,-0.68566930876,3.93906282233,-0.157503205209,22.8,0.000356963640547,-0.000465045954486,0.000630324408246,-0.17992170155,0.461855173111,0.178488373756,0.448357343674,-0.467847585678,-0.782556772232
1586422894.89,-6.7836971283,32.2855415344,166.693618774,-4.86455488205,-0.900113463402,7.91866207123,0,0,0,-0.69270064779,3.96315162954,-0.164341341736,22.81,0.000405420508298,-0.000454722312382,0.000589187436249,0.00750404316932,0.290346503258,0.204806700349,0.498297214508,-0.461448431015,-0.757544994354
1586422895.14,-2.55772852898,35.4685630798,170.89894104,-5.28959560394,-0.442986249924,7.72306919098,-0.0809,4.9234,0.6699010301,-0.585292722855,4.1543511129,-0.256944174634,22.8,0.000523589435962,-0.000580130192217,0.000462550816077,0.153731092811,0.122598066926,0.30225288868,0.498824834824,-0.518303871155,-0.711159467697
1586422895.41,4.02761173248,35.9312973022,177.582611084,-5.32117128372,0.477693885565,7.75125455856,0,0,0,-0.591031215582,4.17918173344,-0.253659939321,22.8,0.000577944871457,-0.000590020540771,0.000440482851172,0.268798410892,-0.0219784919173,0.429889798164,0.450253725052,-0.594394683838,-0.682040452957
1586422895.67,12.4660987854,33.718460083,-174.424789429,-5.32943630219,1.95745849609,7.89557552338,0,0,0,-0.602621191063,4.1881454184,-0.248532411661,22.8,0.000592702374958,-0.000565564265133,0.000431029756548,0.0811914727092,-0.134568780661,0.456690639257,0.350953578949,-0.689800262451,-0.646456956863
1586422895.92,11.2571964264,29.1028594971,-168.990402222,-4.8443980217,2.05626535416,8.33910179138,0,0,0,-0.618326998948,4.18776597325,-0.246043904595,22.8,0.00058379482811,-0.00051754965077,0.000422187044519,-0.49709430337,-0.305311918259,0.275741845369,0.237940311432,-0.674708843231,-0.716122627258
1586422896.18,5.55318880081,23.5522251129,-167.481307983,-4.14158630371,1.21326327324,8.87835216522,0,0,0,-0.631263412794,4.18383826665,-0.246145247139,22.8,0.00055607728107,-0.000474287610067,0.000412789045561,-0.215251535177,-0.366524130106,0.0498606190085,0.13719201088,-0.592932939529,-0.815262317657
1586422896.44,2.55509781837,17.7442073822,-167.950958252,-3.27085208893,0.746538043022,9.21908760071,0,0,0,-0.64279846618,4.17841564442,-0.249752243833,22.8,0.000520686898614,-0.000432441289079,0.000397994845353,-0.163196146488,-0.417154222727,-0.0274606272578,0.0548360347748,-0.550608873367,-0.858711481094
1586422896.7,3.27300548553,11.1170787811,-168.536727905,-2.10459947586,0.719479560852,9.59770011902,0,0,0,-0.650725798252,4.176929867,-0.24894807565,22.79,0.00049362135607,-0.000410780770509,0.000396025135799,0.129062607884,-0.466695427895,-0.00380874029361,-0.0400912761688,-0.563443422318,-0.853332519531
1586422896.96,3.3987967968,4.03816318512,-168.97203064,-0.693984091282,0.623930990696,9.91234016418,0,0,0,-0.658278536461,4.18246170802,-0.240501337922,22.79,0.00049308355429,-0.000405157566481,0.000413778815437,-0.0949838235974,-0.479652047157,-0.00122077867854,-0.140818834305,-0.565533876419,-0.83979344368
1586422897.22,-2.78038144112,-2.25136709213,-169.146835327,0.331376105547,0.00622323621064,10.3404808044,0,0,0,-0.677546405362,4.17594971401,-0.219667178492,22.79,0.000485652641726,-0.000343117128534,0.000483528010564,-0.231136262417,-0.415730893612,-0.067685239017,-0.233667612076,-0.473436832428,-0.877918720245
1586422897.47,9.70581150055,-8.98241329193,-170.995895386,1.05881416798,1.447478652,9.74555206299,0,0,0,-0.669484078428,4.17172296933,-0.212250956739,22.79,0.00042426660001,-0.000367249090092,0.000508346928402,1.18471240997,-0.44118091464,-0.0809995308518,-0.308044433594,-0.638905525208,-0.727919578552
1586422897.73,20.8406600952,-15.7292804718,-172.942214966,2.67392992973,3.10227656364,8.75624656677,-0.151,5.4767,1.39034193081,-0.586590231033,4.3820864693,-0.422761083302,22.79,0.000482289567246,-0.000521921695229,0.000310430240077,0.365883529186,-0.532190322876,0.0697913840413,-0.387689590454,-0.767795324326,-0.540972709656
1586422897.99,23.5095996857,-24.4046764374,-174.529251099,4.56313467026,3.45524287224,8.09304237366,0,0,0,-0.599596774425,4.40666051141,-0.420699527779,22.78,0.000546430741408,-0.000535667590035,0.000297075032196,-0.0298336613923,-0.589349269867,0.183271676302,-0.486843585968,-0.775512695312,-0.44061088562
1586422898.26,24.5745735168,-32.9567871094,-174.79145813,5.82426023483,3.2781059742,7.27147674561,0,0,0,-0.611523197425,4.43293624522,-0.423759339335,22.78,0.000608138071462,-0.000554178443928,0.000269300868482,0.0718130767345,-0.480660676956,0.263171464205,-0.585952758789,-0.753182888031,-0.359010219574
1586422898.51,18.2729206085,-39.415687561,-172.604110718,5.9239692688,2.38174557686,7.45585870743,0,0,0,-0.612343259674,4.43395067048,-0.418060123771,22.78,0.000568592824614,-0.000553527382865,0.00030178603255,-0.745399832726,-0.205261453986,0.284361332655,-0.668753862381,-0.679537773132,-0.358211278915
1586422898.77,5.09959125519,-41.1931838989,-169.079681396,6.3369140625,0.829537034035,7.6040430069,0,0,0,-0.621057913687,4.4350363662,-0.414858944019,22.79,0.000552041569278,-0.000531216618785,0.000333251478725,-0.566968679428,-0.00540875643492,0.15567432344,-0.716345310211,-0.566305875778,-0.473139286041
1586422899.03,-4.25458049774,-40.5410270691,-165.81413269,6.27187871933,-0.299239426851,7.4444899559,0,0,0,-0.632427669105,4.43520030715,-0.422038883884,22.78,0.000538207367741,-0.00049840360702,0.000334277658445,-0.407558619976,0.0580011419952,0.186155334115,-0.734196901321,-0.47184753418,-0.554184913635
1586422899.29,-10.9003515244,-40.3454437256,-162.755661011,6.12486124039,-1.18760359287,7.41374731064,0,0,0,-0.640771828138,4.43097946367,-0.427992248957,22.78,0.000508503282542,-0.000468964306405,0.000343336728388,-0.254897475243,-0.0504698753357,0.125274673104,-0.757297992706,-0.394578933716,-0.596683740616
1586422899.55,-13.2235021591,-41.0181770325,-161.541732788,6.2415356636,-1.39818000793,7.33691453934,0,0,0,-0.65149248927,4.42498525575,-0.431968202866,22.78,0.000482399053128,-0.000430394699499,0.000360064484339,0.11761469394,-0.0534612759948,-0.0011842699023,-0.768717288971,-0.363562107086,-0.598037004471
1586422899.81,-10.5562791824,-40.9795951843,-162.477325439,6.24179935455,-1.25362706184,7.7493853569,0,0,0,-0.658357597332,4.42137326302,-0.421261055335,22.78,0.000456429429838,-0.000416690345574,0.000420237042928,0.0703746527433,0.0572288520634,-0.069173425436,-0.767077684402,-0.391463279724,-0.580337762833
1586422900.06,-13.1070337296,-41.1349372864,-163.161499023,6.32779979706,-1.2039963007,7.22897624969,0,0,0,-0.673897992947,4.41314365026,-0.427957431301,22.78,0.000439572657515,-0.00035454047361,0.000424319786574,-0.29161849618,-0.087380066514,-0.0614468306303,-0.763910531998,-0.369272708893,-0.606216669083
1586422900.33,-14.8078165054,-43.4197349548,-164.715072632,6.66903543472,-1.42974793911,6.91482925415,0.056,6.0129,2.00772113459,-0.561468499472,4.64557944065,-0.720884349234,22.77,0.000482340533524,-0.000480794868134,0.000178693880043,-0.0992134436965,-0.174271702766,-0.122407115996,-0.772055864334,-0.366131544113,-0.605308771133
1586422900.58,-13.7970285416,-47.674118042,-166.505310059,7.21743202209,-1.55192518234,6.41731452942,0,0,0,-0.566274811618,4.65119966783,-0.730994251421,22.78,0.000477336318336,-0.000477644620433,0.000178685150212,-0.0165734533221,-0.286473035812,-0.147779360414,-0.791125059128,-0.390508174896,-0.556607961655
1586422900.84,-14.458489418,-52.9158096313,-166.816192627,8.08787059784,-1.46415805817,5.5187420845,0,0,0,-0.57535438622,4.66335834928,-0.748358139322,22.77,0.000511116770385,-0.000475744888965,0.000151680747354,-0.0983194112778,-0.376452058554,-0.0902552753687,-0.824148416519,-0.40159702301,-0.492205619812
1586422901.1,-16.8733444214,-58.1899490356,-165.759735107,8.48391532898,-2.04791712761,4.89461183548,0,0,0,-0.571207488398,4.6848223319,-0.760796830734,22.77,0.000529768752112,-0.000546773939874,0.000144549125826,-0.121768273413,-0.338528871536,0.00790041405708,-0.859260082245,-0.407583236694,-0.43061375618
1586422901.35,-22.6326656342,-62.1758155823,-161.721237183,8.7295923233,-1.49785745144,4.73900032043,0,0,0,-0.58359273595,4.68080563713,-0.756318413203,22.77,0.000535698427248,-0.000512143787913,0.000209440012736,-0.144643783569,-0.279423743486,0.0400079600513,-0.892105102539,-0.382002592087,-0.381645202637
1586422901.61,-25.579076767,-64.4625167847,-159.09312439,8.93238162994,-1.68091821671,4.22328042984,0,0,0,-0.594052734072,4.67908859157,-0.75504215172,22.77,0.000545307393399,-0.000492987729374,0.000261348416207,-0.0164713747799,-0.110242903233,0.00390168349259,-0.910557746887,-0.375304222107,-0.34339761734
1586422901.86,-26.6558189392,-65.6499099731,-159.186462402,8.74568462372,-1.62998270988,3.9939866066,0,0,0,-0.599477503142,4.67173300425,-0.754464771083,22.77,0.000518962906054,-0.000468563559832,0.00031006280593,-0.122844055295,-0.0126883396879,-0.0667136237025,-0.912764549255,-0.376346349716,-0.337925195694
1586422902.12,-27.2468700409,-65.8252639771,-160.659866333,8.71421813965,-1.57122290134,3.64208889008,0,0,0,-0.603314547847,4.66315742304,-0.763758294668,22.77,0.000487083833743,-0.000432893277846,0.000319178214723,-0.122280813754,0.0245826356113,-0.0427272282541,-0.907314300537,-0.37705206871,-0.353270053864
1586422902.38,-25.4127597809,-65.3492660522,-163.58972168,9.19106197357,-1.71772003174,3.86279773712,0,0,0,-0.615266129857,4.66901313067,-0.770622789465,22.77,0.000523075360607,-0.00042762821429,0.000340280786527,0.0148044927046,0.0898828804493,-0.0685736760497,-0.89378619194,-0.384198904037,-0.372844457626
1586422902.64,-22.7193260193,-63.9564704895,-166.993392944,8.82135486603,-1.65111994743,4.19991254807,0,0,0,-0.621619252632,4.67257494349,-0.774495459364,22.76,0.000523242576888,-0.000425871705861,0.00036963643778,-0.0404376536608,0.148699626327,-0.0379294231534,-0.874249458313,-0.391534090042,-0.406090259552
1586422902.89,-21.6916294098,-61.6267623901,-169.653610229,8.51382160187,-1.57527136803,4.54262733459,0,0,0,-0.627744383404,4.6713242312,-0.77718470372,22.76,0.000506592582088,-0.000405890029055,0.000397129301164,-0.19994571805,0.206992268562,-0.0027801853139,-0.856124162674,-0.387089967728,-0.450967311859
1586422903.15,-23.1753978729,-58.6654434204,-174.030014038,8.12258529663,-1.72780227661,4.99623012543,0,0,0,-0.634382163778,4.66479343988,-0.77487825621,22.76,0.00047096403977,-0.000367969670132,0.00043746580015,-0.359414190054,0.295687198639,-0.119536116719,-0.820435523987,-0.35157752037,-0.540152311325
1586422903.41,-20.7097835541,-55.1555213928,179.878067017,8.19848251343,-2.00180482864,5.39324712753,0,0,0,-0.643595240606,4.67449978753,-0.779376970563,22.77,0.000490328941821,-0.000370488392694,0.000456872905596,-0.108019702137,0.276111036539,-0.114452153444,-0.762434482574,-0.349853754044,-0.619978666306
1586422903.67,-18.4668979645,-51.1747360229,175.281509399,7.05136346817,-1.76226949692,5.70292615891,1.406,6.2176,2.72717105745,-0.292400498421,4.92111688599,-1.16929763974,22.76,0.000346926701204,-0.000648859113052,0.000103412631646,-0.0102281607687,0.319847792387,-0.0529323033988,-0.700535774231,-0.34505033493,-0.689754724503
1586422903.93,-14.1591911316,-47.1620483398,172.533447266,7.06325483322,-1.37508237362,6.7424287796,0,0,0,-0.296385302743,4.92510391443,-1.16910042981,22.76,0.000328656790262,-0.000615052772619,0.00013814716034,0.363053530455,0.289900332689,-0.0289414338768,-0.639933347702,-0.378682613373,-0.720356464386
1586422904.19,-8.24606227875,-43.0300064087,171.745101929,6.81010246277,-1.29624950886,7.08090829849,0,0,0,-0.295300304811,4.94818604656,-1.17909744064,22.76,0.000343902299672,-0.000650623690941,0.000135968782424,0.211105078459,0.281399875879,0.0401647984982,-0.591421604156,-0.44299197197,-0.720334291458
1586422904.44,-7.9987039566,-37.853477478,171.514541626,5.92789649963,-1.03893601894,7.84928226471,0,0,0,-0.29678359106,4.95964769487,-1.18021803436,22.76,0.000330817640873,-0.000645552264445,0.000158811444234,-0.0986256301403,0.387723833323,0.0272369161248,-0.532336235046,-0.442643404007,-0.766967058182
1586422904.7,-7.33926105499,-32.0975570679,169.406280518,5.08409881592,-0.931104183197,8.44845581055,0,0,0,-0.299289810343,4.96838389774,-1.17914700485,22.76,0.000312700459997,-0.000628152916849,0.000185184851284,0.0257982145995,0.421817362309,-0.107426650822,-0.442625045776,-0.443111658096,-0.820030450821
1586422904.96,-5.57822322845,-26.5648727417,167.153060913,4.66065979004,-0.895891964436,8.85282421112,0,0,0,-0.308212161474,4.98756995061,-1.18351782187,22.76,0.000349739752705,-0.000633996449705,0.000200142717896,0.0609422400594,0.355680674314,-0.095727711916,-0.345026254654,-0.460150718689,-0.85246348381
1586422905.22,-5.13662004471,-20.2301197052,165.335449219,3.79491305351,-0.955222547054,9.2491979599,0,0,0,-0.319261725883,5.01225045757,-1.19036457528,22.76,0.000404843990299,-0.000651786941542,0.000210030585579,-0.0135716199875,0.462397843599,-0.0332128554583,-0.238368749619,-0.462098836899,-0.883550405502
1586422905.48,-4.80445575714,-14.0700798035,163.780578613,2.41240668297,-0.77854424715,9.71151542664,0,0,0,-0.325072693564,5.02743257025,-1.18770077975,22.76,0.000408172831974,-0.000649488238071,0.000239781597714,0.0445681102574,0.44849050045,-0.0928730666637,-0.131652593613,-0.46134018898,-0.905235052109
1586422905.74,-3.5928337574,-7.78162002563,162.804534912,1.37945902348,-0.636989414692,9.86473464966,0,0,0,-0.330171950722,5.04441492925,-1.18665406274,22.76,0.000414949734805,-0.0006534494808,0.000261043547124,0.100745514035,0.381294310093,-0.00598654570058,-0.0263874530792,-0.478935956955,-0.906522035599
1586422905.99,-2.43093562126,-1.94320869446,163.08241272,0.543805480003,-0.617417275906,9.99940109253,0,0,0,-0.337964168469,5.06967179675,-1.1850824357,22.76,0.000444076991746,-0.000681456523993,0.000287775707031,-0.0161748472601,0.366546213627,0.0976062044501,0.0591464042664,-0.498512029648,-0.88950419426
1586422906.25,-3.64413690567,2.87026715279,164.065567017,-0.389293849468,-0.492822706699,9.81718063354,0,0,0,-0.347083978434,5.08287320598,-1.18815094456,22.75,0.000458315899855,-0.000663349547474,0.000292139761022,0.0501243658364,0.322599321604,0.0565996617079,0.124048233032,-0.482088327408,-0.892856836319
1586422906.51,-0.86862295866,6.46548318863,164.650787354,-0.76120275259,-0.1171740219,9.79396915436,3.2419,6.2701,2.98284334409,0.203617745006,5.32873533391,-1.57643371908,22.75,0.000234889136173,-0.00102140978781,-8.38150413404e-05,0.109821021557,0.147265061736,0.0180570464581,0.170261859894,-0.525477170944,-0.855277776718
1586422906.77,-0.00170333217829,7.38839244843,164.649810791,-1.12466001511,0.07427149266,9.55185127258,0,0,0,0.199780397929,5.34925992491,-1.59118177756,22.75,0.00025393606306,-0.00101076237365,-0.00010763883991,0.0578777901828,-0.0623762719333,-0.00993311405182,0.186436653137,-0.537954330444,-0.841071844101
1586422907.03,-0.111847788095,4.37579298019,163.652557373,-0.760026335716,0.0902049019933,9.84214401245,0,0,0,0.197850008472,5.36630605406,-1.59676701228,22.75,0.000252286439274,-0.000996006460972,-0.000100491185467,-0.0302467569709,-0.248616650701,-0.0978205725551,0.154141426086,-0.538053035736,-0.852373361588
1586422907.29,-0.0686582922935,0.132871374488,162.496780396,0.176168441772,0.0690399557352,10.0313892365,0,0,0,0.189526101687,5.38638518894,-1.59812523889,22.75,0.000279552609226,-0.000985469342923,-7.24135586538e-05,0.0194298177958,-0.299085080624,-0.0923391953111,0.105009078979,-0.531844139099,-0.861873149872
1586422907.55,0.743547618389,-2.43937015533,161.302658081,0.789178609848,0.097180865705,9.96085453033,0,0,0,0.178673020375,5.41346196308,-1.60271058553,22.75,0.000331038037585,-0.000989834213377,-5.21328742279e-05,0.117233961821,-0.090319685638,-0.0539321564138,0.0785446166992,-0.541713476181,-0.860879659653
1586422907.81,2.90988063812,-3.01315355301,160.517822266,0.595845043659,0.253085374832,10.0226726532,0,0,0,0.179451820156,5.44462879443,-1.6009552797,22.75,0.000341883268591,-0.00102382489777,-2.04537269401e-05,0.108684070408,0.0216508321464,-0.0330679230392,0.0762915611267,-0.572780847549,-0.83996295929
1586422908.07,3.09971237183,-2.76801133156,160.802444458,0.389886140823,0.5235247612,9.93919849396,0,0,0,0.182237513452,5.46510221512,-1.60033323952,22.75,0.000329840575084,-0.00102498671703,-2.28079682615e-07,-0.00418424559757,-0.00441148877144,0.00053923582891,0.0761930942535,-0.577789545059,-0.836101531982
1586422908.32,4.38865327835,-2.11352229118,160.891662598,0.482183367014,0.575157821178,9.99244213104,0,0,0,0.180520086344,5.49477438928,-1.59821994028,22.75,0.000346501772819,-0.00104966217802,2.87031529755e-05,0.1160024032,0.0668989568949,0.029825983569,0.0862324237823,-0.596086025238,-0.820948123932
